timestamp,roll,pitch,yaw,gyro_x,gyro_y,gyro_z,accel_x,accel_y,accel_z
1485545685405154,0.00703276,0.122482,0.781967,8.25,-3.5625,-1.3125,-0.114746,0.0107422,0.994629
1485545685428183,0.0113133,0.119123,0.781597,13.5625,-7.125,-0.8125,-0.0844727,-0.0078125,0.983398
1485545685443180,0.018376,0.118987,0.781239,15.375,-0.5,-1.625,-0.118652,0.0883789,0.986816
1485545685468211,0.0203865,0.118571,0.782272,3.625,-1.375,2.6875,-0.125,0.0454102,1.00928
1485545685488245,0.0223069,0.118982,0.782827,4.0625,-0.75,1.3125,-0.146973,0.0439453,0.998535
1485545685502756,0.0229058,0.11874,0.783372,2.0625,-1.4375,1.6875,-0.130859,0.0102539,1.00391
1485545685528053,0.0240857,0.118266,0.784236,3.5625,-1.8125,2.5625,-0.125488,0.0180664,0.991699
1485545685580099,0.0270539,0.117974,0.78494,6.875,-0.75,1.625,-0.116699,0.0483398,0.998535
1485545685581095,0.0295028,0.118027,0.78563,4.5,-0.3125,1.75,-0.125488,0.0620117,1.00537
1485545685591114,0.0298713,0.118274,0.785669,-1.125,0.625,-0.125,-0.120605,0.0581055,1.01318
1485545685608141,0.0274432,0.118357,0.786429,-6.75,-0.4375,2.0625,-0.128418,0.0229492,0.988281
1485545685624135,0.0258968,0.118078,0.786858,-3.75,-0.875,1.3125,-0.121094,0.0112305,0.98877
1485545685655170,0.0261319,0.117978,0.786982,1.125,0.4375,0.5625,-0.106934,0.0180664,0.992188
1485545685690221,0.0265378,0.118605,0.787157,0.9375,2.875,0.375,-0.105957,0.0302734,1.00439
1485545685700709,0.0262473,0.120454,0.78724,-2,4.5,-0.0625,-0.128418,0.0444336,1.00244
1485545685706129,0.0247258,0.12215,0.7876,-5.25,3.0625,0.625,-0.149414,0.0307617,0.996582
1485545685728151,0.0233912,0.122823,0.787106,-3.5625,1.5,-1.1875,-0.132813,0.0258789,1.00537
1485545685744158,0.0219112,0.12317,0.78665,-5.125,1.125,-1.4375,-0.118164,0.0332031,0.989746
1485545685775168,0.021677,0.123262,0.786493,-0.75,1,-0.8125,-0.109375,0.0234375,0.989746
1485545685789706,0.0212238,0.12345,0.786472,-0.625,1.6875,0.25,-0.109863,0.012207,0.992676
1485545685812731,0.0211031,0.124424,0.786483,0.1875,2.25,0.125,-0.128418,0.0136719,0.992188
1485545685834738,0.0208278,0.125341,0.78666,-0.125,1.5,0.4375,-0.141602,0.0102539,0.990723
1485545685849248,0.020962,0.12568,0.786542,1.125,-0.1875,-0.25,-0.144043,0.00878906,1
1485545685872252,0.02185,0.125578,0.786599,2.3125,0,0.125,-0.121094,0.0224609,1.00293
1485545685894778,0.022568,0.125677,0.786768,1.4375,-0.1875,0.375,-0.133301,0.03125,0.991211
1485545685909293,0.0228629,0.125821,0.786425,0.8125,0.125,-1.25,-0.129883,0.0283203,0.994629
1485545685932304,0.0229763,0.125774,0.786431,0.6875,0.125,-0.9375,-0.122559,0.0361328,0.999512
1485545685954818,0.0226021,0.126185,0.786135,-1.875,0.1875,-0.75,-0.137207,0.0341797,0.999023
1485545685969335,0.0210356,0.126299,0.785771,-3.5,-0.25,-0.9375,-0.13623,0.00732422,0.989746
1485545685992346,0.0203872,0.126428,0.785214,-1,-0.1875,-1.5,-0.132324,0.00927734,0.996094
1485545686014861,0.0202414,0.126475,0.784656,0.0625,-0.0625,-1.5,-0.127441,0.0170898,0.991699
1485545686029372,0.021018,0.126151,0.784434,1.5625,-0.75,-0.9375,-0.126953,0.0341797,0.997559
1485545686052388,0.0216322,0.126031,0.784471,1.625,-0.25,0.25,-0.124512,0.0244141,1.00195
1485545686074909,0.021857,0.126206,0.784755,1.1875,-0.0625,0.75,-0.13623,0.0126953,1.00049
1485545686095919,0.0219042,0.12632,0.784765,0.6875,-0.625,0.5,-0.133301,0.012207,0.995605
1485545686112430,0.022509,0.126205,0.784688,2.75,-0.4375,-0.1875,-0.129883,0.00732422,0.98877
1485545686134947,0.0239676,0.12626,0.784391,4.375,-0.25,-0.75,-0.131348,0.0239258,1.00195
1485545686156962,0.0258797,0.126128,0.784116,4.25,-0.3125,-1,-0.126953,0.0444336,1.00439
1485545686172974,0.0271573,0.125731,0.783927,1.875,-1.5625,-0.9375,-0.131836,0.0541992,1.01563
1485545686194994,0.0259669,0.125425,0.783823,-4.4375,-1,-0.1875,-0.127441,0.0390625,0.992188
1485545686216003,0.0243872,0.125414,0.783968,-3.6875,-0.875,0.4375,-0.137695,0.0126953,0.990723
1485545686232515,0.0242738,0.125461,0.783963,-0.9375,-0.8125,0.125,-0.132324,0.00683594,0.990234
1485545686255031,0.0245668,0.125207,0.783969,1.25,-0.8125,0.125,-0.12793,0.0161133,0.993164
1485545686276036,0.0252456,0.124934,0.784035,1.8125,-0.9375,0.125,-0.125488,0.0253906,0.996582
1485545686292547,0.0261618,0.124553,0.784192,2,-1.125,0.4375,-0.125977,0.0371094,1.00195
1485545686315063,0.0263224,0.12462,0.784207,0.875,-0.6875,0.375,-0.131348,0.0419922,0.997559
1485545686336078,0.0260561,0.124601,0.784333,-1.375,-0.875,0.375,-0.135742,0.0366211,1.00244
1485545686352589,0.0255439,0.124283,0.784537,-2,-1.125,0.3125,-0.128906,0.0302734,0.994141
1485545686375105,0.0249169,0.12402,0.78477,-1.875,-1.0625,0.6875,-0.129883,0.0239258,0.987305
1485545686396120,0.0249641,0.124133,0.784779,-0.25,-1,0.75,-0.129883,0.0292969,1
1485545686412632,0.0251131,0.123808,0.785031,-1.1875,-1.25,0.625,-0.129883,0.0493164,1.00146
1485545686435148,0.0236093,0.12337,0.785046,-5,-1.375,0.0625,-0.125977,0.03125,0.992676
1485545686456163,0.0216523,0.123121,0.785042,-4.9375,-0.75,-0.1875,-0.121094,0.012207,0.99707
1485545686472674,0.0205261,0.122925,0.785213,-2.8125,-0.375,0.5,-0.121094,0.0102539,0.995117
1485545686495193,0.020503,0.122809,0.78561,0.3125,-0.3125,1.3125,-0.122559,0.0136719,0.99707
1485545686517299,0.0207629,0.122707,0.786141,0.75,-0.5,1.5625,-0.125,0.0200195,0.996094
1485545686532321,0.0209663,0.122497,0.786548,0,-0.5,1,-0.123047,0.0234375,0.995605
1485545686554824,0.0209663,0.122497,0.786548,-0.3125,-0.8125,0.4375,-0.123535,0.0351563,0.999023
1485545686577350,0.0201355,0.122445,0.786376,-2.6875,-0.3125,-0.5625,-0.123535,0.0209961,0.992676
1485545686592352,0.0193611,0.1225,0.786326,-1.4375,-0.1875,-0.125,-0.128906,0.00878906,0.993652
1485545686614868,0.0200695,0.122605,0.78638,1.9375,-0.25,0.25,-0.128418,0.0229492,0.995117
1485545686637384,0.0208058,0.122431,0.786534,1.625,-0.4375,0.25,-0.124023,0.0249023,1.00098
1485545686651894,0.0208058,0.122431,0.786534,-0.4375,-0.5,0.3125,-0.125488,0.0273438,0.998047
1485545686680913,0.0208058,0.122431,0.786534,-0.4375,-0.6875,0.375,-0.119141,0.0292969,0.996094
1485545686697425,0.0208058,0.122431,0.786534,-0.75,0,0.125,-0.123047,0.0195313,0.99707
1485545686719941,0.0208058,0.122431,0.786534,-0.9375,0.4375,0.6875,-0.125977,0.0234375,0.993652
1485545686740969,0.0208058,0.122431,0.786534,-0.8125,-0.0625,0.8125,-0.127441,0.0107422,0.999512
1485545686757480,0.0208058,0.122431,0.786534,-0.375,-0.25,0.1875,-0.126465,0.0166016,1.00098
1485545686779995,0.0208058,0.122431,0.786534,0.625,0.0625,0.25,-0.124512,0.0209961,1.00488
1485545686801028,0.0208058,0.122431,0.786534,0.875,-0.1875,0.1875,-0.121094,0.0214844,0.997559
1485545686817522,0.020853,0.122544,0.786543,-0.8125,-0.3125,0.125,-0.129883,0.0341797,0.994141
1485545686840025,0.020853,0.122544,0.786543,-1,-0.1875,-0.1875,-0.128418,0.0205078,0.990723
1485545686861053,0.02036,0.122621,0.786659,-1.125,-0.3125,0.4375,-0.126953,0.0161133,0.995605
1485545686877564,0.02036,0.122621,0.786659,-0.0625,-0.3125,0.4375,-0.126953,0.0117188,0.990723
1485545686900069,0.0211817,0.122679,0.786719,2.3125,-0.25,0.375,-0.132324,0.0200195,0.998047
1485545686921092,0.0218519,0.122665,0.786878,1.5625,-0.375,0.4375,-0.124512,0.0263672,1.00244
1485545686945141,0.0222068,0.122527,0.787187,1.0625,0.125,0.5,-0.118652,0.019043,0.99707
1485545686960162,0.0225845,0.122768,0.787339,1.25,0.4375,0.4375,-0.125,0.019043,0.995605
1485545686981182,0.0233403,0.122986,0.787404,2.375,0.375,0.25,-0.125488,0.0209961,0.997559
1485545686997688,0.0239446,0.123132,0.787567,1.75,0.5625,0.4375,-0.123047,0.0249023,0.995605
1485545687020193,0.0241053,0.123199,0.787582,0.4375,0.375,0.4375,-0.133789,0.0371094,1.00098
1485545687042719,0.0241053,0.123199,0.787582,0.5,-0.5625,0.375,-0.130371,0.0371094,0.99707
1485545687057729,0.0242186,0.123152,0.787588,-0.625,-0.625,0.4375,-0.125488,0.034668,1.00098
1485545687079735,0.0234441,0.123207,0.787536,-2.125,-0.0625,0.0625,-0.121582,0.0214844,0.996094
1485545687102274,0.02259,0.123039,0.78776,-1.875,-0.5,0.4375,-0.123535,0.0126953,0.999023
1485545687117262,0.0224294,0.122972,0.787745,0.375,0.125,0.3125,-0.12207,0.00878906,0.992676
1485545687139779,0.0234134,0.123089,0.787787,2.75,0,0.4375,-0.128906,0.0229492,0.991699
1485545687162306,0.0242902,0.123262,0.788004,1.9375,-0.0625,0.4375,-0.129883,0.027832,0.995605
1485545687176821,0.0250003,0.123359,0.788027,2.1875,-0.0625,0.1875,-0.129395,0.0253906,1.00098
1485545687199833,0.0258297,0.123419,0.788235,1.875,-0.0625,0.375,-0.126953,0.0283203,0.998535
1485545687222336,0.0261511,0.123551,0.788265,1.0625,0.25,0,-0.125488,0.0239258,0.998047
1485545687236856,0.0265123,0.123796,0.788159,1.6875,0.5,-0.1875,-0.12793,0.019043,0.989746
1485545687259874,0.0274215,0.124079,0.788094,2.75,0.5,-0.125,-0.125977,0.0229492,0.996582
1485545687282388,0.0290578,0.124194,0.788072,4.0625,0.5,-0.0625,-0.124512,0.0361328,0.999512
1485545687296900,0.0298217,0.124414,0.788287,2.1875,0.5,0.5,-0.12793,0.0332031,0.996094
1485545687319920,0.0307478,0.124692,0.788484,1.6875,0.3125,0.25,-0.129395,0.0410156,1.00049
1485545687342434,0.0315778,0.124751,0.788695,1.25,-0.125,0.3125,-0.131348,0.0463867,0.99707
1485545687356941,0.0313681,0.124839,0.788944,-1.4375,-0.0625,0.625,-0.129395,0.0405273,0.994629
1485545687379957,0.030676,0.124729,0.789146,-2,-0.25,0.625,-0.126953,0.0302734,0.998535
1485545687402464,0.030676,0.124729,0.789146,-0.9375,-0.25,0.6875,-0.12793,0.0297852,0.996582
1485545687416974,0.030676,0.124729,0.789146,-0.75,-0.4375,0.75,-0.123047,0.0336914,1.00146
1485545687439990,0.0301447,0.124685,0.789364,-1.3125,-0.4375,0.5625,-0.12793,0.027832,0.996094
1485545687462506,0.0301447,0.124685,0.789364,-0.375,-0.5,0.5,-0.128418,0.0297852,0.991699
1485545687477015,0.0301447,0.124685,0.789364,-0.375,-0.1875,0.4375,-0.121094,0.0219727,0.996094
1485545687500033,0.0301435,0.124693,0.789397,0,0.125,0.4375,-0.123047,0.0224609,0.998535
1485545687522548,0.0300302,0.12474,0.789391,0.6875,-0.0625,0.3125,-0.128418,0.0205078,0.994629
1485545687543601,0.0305705,0.124777,0.789287,1.75,0.0625,0,-0.126465,0.0253906,0.994141
1485545687560122,0.0312794,0.124882,0.789345,2.1875,0.375,-0.125,-0.127441,0.0302734,1.00049
1485545687590142,0.0325853,0.125131,0.789424,2.5625,0,0.25,-0.131836,0.0463867,0.999023
1485545687603652,0.0326985,0.125084,0.789429,0.8125,-0.1875,0.4375,-0.129395,0.0463867,0.997559
1485545687620164,0.0323666,0.125226,0.789559,-1.25,-0.1875,0.3125,-0.130371,0.0375977,0.992188
1485545687642695,0.0317799,0.125068,0.78962,-1.6875,-0.5625,0.4375,-0.128418,0.0297852,0.989258
1485545687663694,0.0311264,0.125078,0.789718,-1.8125,-0.4375,0.1875,-0.130371,0.0283203,0.991699
1485545687680197,0.0310131,0.125125,0.789713,-0.25,-0.5,-0.0625,-0.131836,0.0249023,0.990723
1485545687702713,0.0318534,0.124908,0.789762,1.25,-0.75,-0.1875,-0.12793,0.0478516,1.00781
1485545687723727,0.0310969,0.12469,0.789693,-2.5625,-0.5625,0.125,-0.127441,0.0380859,1
1485545687739739,0.0304433,0.124701,0.789792,-2.0625,0,0.125,-0.124023,0.027832,0.992676
1485545687762264,0.0303301,0.124748,0.789786,-0.0625,0.25,0.375,-0.126465,0.0200195,0.987305
1485545687783310,0.0304987,0.124815,0.789949,1.5,0.3125,0.4375,-0.125488,0.0166016,0.994141
1485545687800321,0.0312245,0.124914,0.790267,1.5625,0,0.875,-0.130859,0.0341797,0.996094
1485545687822337,0.0322642,0.125144,0.790471,1.8125,0,0.5625,-0.133301,0.0473633,0.99707
1485545687843365,0.0323118,0.125257,0.790482,0.5,-0.625,0.6875,-0.132813,0.050293,0.998535
1485545687859881,0.0314588,0.125081,0.790667,-2.8125,-0.625,0.5,-0.130371,0.0361328,0.994629
1485545687882390,0.0307498,0.124977,0.790609,-1.9375,-0.4375,-0.375,-0.125977,0.0288086,0.989746
1485545687903438,0.0299277,0.12492,0.790545,-2.0625,-0.25,0,-0.123535,0.0239258,0.992188
1485545687919957,0.0299277,0.12492,0.790545,-0.1875,0.0625,0.125,-0.125977,0.0297852,0.995117
1485545687942465,0.0300409,0.124873,0.790551,-0.5,-0.375,0.75,-0.128418,0.0405273,0.993164
1485545687964981,0.0293076,0.12466,0.790923,-1.5,-0.75,0.8125,-0.124512,0.0214844,0.998047
1485545687979991,0.0293076,0.12466,0.790923,0,-0.375,0.5625,-0.128906,0.0200195,0.991699
1485545688002552,0.0298956,0.124809,0.790829,1.625,0.1875,-0.0625,-0.127441,0.0307617,0.991699
1485545688025066,0.0310564,0.124993,0.791184,2.375,-0.25,0.8125,-0.138184,0.0449219,1.0127
1485545688040071,0.0309504,0.123984,0.791928,-1.5,-2.5,1.9375,-0.12207,0.043457,0.992676
1485545688062586,0.0307763,0.123525,0.792148,-0.5625,-1.125,0.875,-0.119629,0.0307617,0.992188
1485545688085103,0.0307763,0.123525,0.792148,0.3125,-0.5,0.875,-0.123047,0.0234375,0.987305
1485545688100118,0.030824,0.123639,0.792158,-0.125,-0.125,0.25,-0.129395,0.0327148,0.997559
1485545688122628,0.0302836,0.123602,0.792263,-1.25,-0.25,0,-0.128418,0.0292969,0.996094
1485545688145145,0.0297356,0.123565,0.792221,-2.125,-0.125,-0.125,-0.125488,0.034668,0.993652
1485545688159151,0.0291321,0.123413,0.792022,-1.1875,-0.4375,-0.375,-0.122559,0.0244141,0.995117
1485545688182671,0.0291321,0.123413,0.792022,-0.125,-0.4375,-0.1875,-0.124023,0.0209961,0.996094
1485545688205187,0.0291321,0.123413,0.792022,0.625,-0.25,0.125,-0.126953,0.0317383,0.995605
1485545688219214,0.0291798,0.123526,0.792032,0.0625,-0.25,0.4375,-0.126953,0.027832,0.992188
1485545688242724,0.0291798,0.123526,0.792032,0,0.25,0,-0.125488,0.0273438,0.997559
1485545688264731,0.0290666,0.123573,0.792027,0.9375,0.5,-0.125,-0.125,0.0209961,0.995117
1485545688279739,0.0294271,0.123825,0.791954,1.375,0.8125,-0.1875,-0.126465,0.0239258,0.999023
1485545688302245,0.0299973,0.124248,0.791874,1.75,0.875,-0.3125,-0.127441,0.0297852,0.998047
1485545688332287,0.0311157,0.12471,0.791837,2.5625,0.6875,-0.125,-0.131836,0.0380859,0.996094
1485545688339283,0.0321,0.124825,0.791884,2,0.125,0.25,-0.133789,0.0415039,1.00342
1485545688362298,0.0326983,0.124585,0.792465,1.25,-1.0625,1.4375,-0.128906,0.0395508,0.99707
1485545688384804,0.0331755,0.124391,0.792895,0.875,-0.875,1.1875,-0.129883,0.0375977,0.996094
1485545688399324,0.0331943,0.123995,0.793684,-0.125,-1.6875,2.0625,-0.128418,0.0297852,0.993164
1485545688422340,0.0334174,0.12311,0.794573,-0.25,-2.375,2.5,-0.12793,0.0385742,1.00098
1485545688444856,0.033372,0.122598,0.795058,-0.625,-1.625,1.6875,-0.122559,0.0375977,0.991699
1485545688466872,0.033372,0.122598,0.795058,-0.25,-0.75,0.9375,-0.124023,0.0263672,0.996582
1485545688482373,0.033372,0.122598,0.795058,0.875,-0.625,0.125,-0.125,0.0332031,0.98877
1485545688504901,0.0339191,0.122643,0.795134,2.375,-0.3125,-0.0625,-0.125488,0.0244141,0.998047
1485545688525903,0.0347674,0.122417,0.795296,1.6875,-0.5,0.4375,-0.124023,0.0419922,1.00244
1485545688542427,0.0353089,0.122062,0.79572,0.5625,-1.1875,1.0625,-0.128418,0.0483398,0.999512
1485545688564943,0.0353569,0.122175,0.795731,-0.6875,-0.8125,0.5625,-0.130859,0.0405273,0.995117
1485545688585961,0.0348259,0.121865,0.795673,-1.4375,-0.6875,0.1875,-0.120117,0.0341797,0.993652
1485545688609975,0.0341168,0.121762,0.795615,-1.4375,-0.1875,-0.0625,-0.116699,0.0239258,0.991699
1485545688624991,0.0340038,0.12181,0.795609,0.4375,0.375,0,-0.124512,0.0268555,0.993164
1485545688645999,0.0341168,0.121762,0.795615,0.875,0.5,0.125,-0.125,0.0419922,1.00146
1485545688662509,0.0339799,0.121692,0.796007,-0.875,-0.5,1,-0.126465,0.0419922,0.989258
1485545688685014,0.0339799,0.121692,0.796007,0.1875,-0.9375,0.4375,-0.123047,0.0336914,0.995605
1485545688707544,0.0339799,0.121692,0.796007,-0.4375,-0.625,0.4375,-0.118652,0.0317383,1.00293
1485545688722551,0.0340929,0.121644,0.796012,-0.875,0.0625,0.0625,-0.124023,0.0463867,0.994141
1485545688745067,0.0334961,0.121763,0.796236,-2.5,0,0.375,-0.125,0.0415039,1.00781
1485545688766111,0.0328274,0.12165,0.796847,-3.8125,-0.1875,1.375,-0.12207,0.0615234,0.98584
1485545688782594,0.0310059,0.12136,0.797251,-5.75,-1.4375,1.375,-0.128906,0.0327148,0.995605
1485545688805116,0.0286608,0.120761,0.797749,-6.125,-2.25,1.25,-0.126953,0.0151367,0.984863
1485545688826130,0.0257852,0.120116,0.798438,-6.625,-2.5,2.25,-0.129883,0.00390625,0.994629
1485545688843137,0.0245154,0.118661,0.798564,-2.375,-1.875,0.625,-0.0888672,0.00146484,0.995117
1485545688865159,0.0251749,0.11853,0.799415,0.25,-0.0625,2.0625,-0.112793,0.0463867,1.00049
1485545688886172,0.0251171,0.119223,0.800084,-2.3125,0.625,2,-0.139648,0.0527344,1.00195
1485545688902679,0.0229556,0.119351,0.800757,-8.9375,-0.75,1.4375,-0.141113,0.0571289,1.00146
1485545688925194,0.0172899,0.118704,0.801566,-15.9375,-2.375,2.375,-0.123047,0.00732422,0.981934
1485545688947723,0.0137689,0.117547,0.801981,-10.3125,-2.5,1.3125,-0.103027,0.0131836,0.981934
1485545688962730,0.0116025,0.116745,0.802474,-3.6875,-1.75,1.5,-0.111816,-0.0229492,0.994629
1485545688985243,0.00789498,0.114096,0.803787,-5.125,-6.75,4.5,-0.101563,-0.0810547,1
1485545689007242,0.00931226,0.115222,0.803891,0.1875,1.125,0,-0.143066,0.0668945,1.00781
1485545689029759,0.00746699,0.11719,0.803428,-3.6875,4.875,-1.3125,-0.130859,-0.012207,0.995117
1485545689044780,0.00490985,0.11802,0.803717,-6.75,0.9375,0.8125,-0.141113,-0.0078125,0.997559
1485545689067285,0.00416821,0.117034,0.804965,-0.75,-4.125,3.6875,-0.131836,-0.0205078,0.978516
1485545689081805,0.00479593,0.115587,0.805754,1.25,-3.375,2.1875,-0.105469,0.00585938,0.999023
1485545689104821,0.00537587,0.115345,0.806039,1.9375,1,0.9375,-0.0922852,0,1.00098
1485545689127336,0.00617269,0.116991,0.805492,0.875,4.0625,-1.875,-0.119629,0.0292969,0.985352
1485545689141848,0.00564349,0.118385,0.804413,-1.8125,3.875,-3.0625,-0.123535,0.0141602,1.00488
1485545689164863,0.00653767,0.11878,0.803296,-0.0625,2.125,-3.875,-0.10498,0.0512695,1.00293
1485545689187389,0.00478781,0.119928,0.803615,-0.5625,3.4375,1.4375,-0.116699,-0.0605469,0.990723
1485545689201889,0.00629213,0.121556,0.803898,3,3.375,0.8125,-0.141602,0.0209961,0.989746
1485545689224929,0.00618878,0.122416,0.804829,0.4375,1.4375,2.625,-0.134766,-0.0107422,0.993164
1485545689247424,0.00754998,0.123432,0.804817,4.25,3.0625,-0.125,-0.120605,0.00390625,0.995605
1485545689261932,0.00914696,0.124348,0.804933,3.4375,2.0625,0.4375,-0.130371,0.0253906,0.993164
1485545689284947,0.0101765,0.12524,0.804784,4.25,2.5,-0.4375,-0.126465,-0.0107422,0.98584
1485545689307463,0.0123187,0.126311,0.804167,6.375,3.0625,-1.8125,-0.123047,0.0141602,0.983887
1485545689321974,0.0148959,0.127466,0.803588,7.6875,3.6875,-2,-0.122559,0.0107422,0.994629
1485545689352496,0.0178699,0.128587,0.803156,8.25,2.875,-1,-0.135742,0.0244141,1.01123
1485545689367506,0.0207313,0.1291,0.802981,6.875,1.3125,-1.125,-0.133789,0.043457,1.00781
1485545689382033,0.0221272,0.129294,0.802653,3.25,-0.25,-0.75,-0.13916,0.0327148,1.00098
1485545689405022,0.0235602,0.128958,0.80251,4.0625,-1.125,-0.6875,-0.132813,0.0253906,0.99707
1485545689427538,0.0251581,0.128671,0.802317,4.6875,-1.0625,-0.25,-0.131348,0.0224609,1
1485545689448553,0.0263749,0.128425,0.802278,3.1875,-1.25,-0.1875,-0.135742,0.0322266,1.00098
1485545689465065,0.027327,0.128155,0.802332,2,-0.6875,-0.125,-0.131836,0.034668,0.998047
1485545689487580,0.0273753,0.128268,0.802342,0.9375,-0.5625,-0.0625,-0.130859,0.0307617,0.996582
1485545689508595,0.027214,0.128203,0.802326,0.8125,-0.3125,0,-0.128418,0.0229492,0.99707
1485545689532612,0.0278108,0.128351,0.802379,1.3125,-0.125,0.25,-0.133789,0.0297852,0.996582
1485545689547623,0.0283204,0.128266,0.802526,1.25,-0.125,0.375,-0.129395,0.0292969,1.00195
1485545689568637,0.0287076,0.128236,0.802553,1,-0.125,0.1875,-0.131348,0.0307617,0.992676
1485545689585149,0.0292561,0.12827,0.802596,1.25,-0.25,0.125,-0.132324,0.0351563,0.996582
1485545689607666,0.0293044,0.128383,0.802607,0.8125,-0.1875,0,-0.130859,0.0332031,0.993164
1485545689630181,0.0294174,0.128336,0.802612,0.375,-0.125,0.125,-0.129883,0.0332031,0.998535
1485545689645210,0.0294174,0.128336,0.802612,0,-0.0625,0.5,-0.130859,0.0375977,1.00098
1485545689667218,0.0294174,0.128336,0.802612,-0.4375,-0.125,0.5,-0.135742,0.0307617,0.995117
1485545689674223,0.0294657,0.128449,0.802622,-0.4375,-0.125,0.4375,-0.135254,0.027832,0.992188
1485545689695237,0.0293044,0.128383,0.802607,-0.0625,-0.0625,0.1875,-0.130859,0.0244141,0.995605
1485545689710247,0.0293527,0.128497,0.802617,0.3125,-0.25,0,-0.133789,0.0244141,0.998535
1485545689732763,0.0299106,0.128525,0.802774,1.25,0.0625,0.1875,-0.130371,0.034668,1.00293
1485545689755279,0.0300236,0.128477,0.80278,0.75,-0.0625,0.5,-0.132813,0.0405273,0.998047
1485545689770290,0.0300236,0.128477,0.80278,-0.5,-0.25,0.5625,-0.133789,0.0405273,1.00293
1485545689792806,0.0296927,0.128622,0.802911,-1.375,-0.4375,0.5,-0.135742,0.0356445,0.993652
1485545689815321,0.0290406,0.128629,0.802976,-1.625,-0.3125,0.25,-0.135254,0.0249023,0.990723
1485545689830332,0.0290406,0.128629,0.802976,-0.5,-0.125,0.4375,-0.129883,0.0273438,0.989746
1485545689852848,0.0290406,0.128629,0.802976,0.0625,-0.1875,0.375,-0.126465,0.0258789,0.993164
1485545689875364,0.0290406,0.128629,0.802976,0.0625,-0.1875,0.4375,-0.12793,0.0253906,0.99707
1485545689891867,0.0290406,0.128629,0.802976,0.5625,0.0625,0.4375,-0.131348,0.0283203,0.993652
1485545689914383,0.0290406,0.128629,0.802976,0.875,0.25,0.1875,-0.136719,0.0361328,0.999512
1485545689935398,0.0292019,0.128694,0.802992,0.5,0,0.3125,-0.13623,0.0429688,0.998047
1485545689953410,0.0292019,0.128694,0.802992,-0.4375,-0.1875,0.375,-0.134277,0.0371094,0.990723
1485545689972962,0.0292019,0.128694,0.802992,-1,-0.3125,0.4375,-0.129395,0.0307617,0.995605
1485545689995478,0.0292019,0.128694,0.802992,-0.4375,-0.3125,0.3125,-0.126465,0.0263672,0.995605
1485545690010489,0.0292019,0.128694,0.802992,0.0625,-0.125,0.25,-0.132813,0.0307617,0.994141
1485545690033004,0.0292019,0.128694,0.802992,-0.25,-0.3125,0.3125,-0.130371,0.0263672,0.998047
1485545690055529,0.0292019,0.128694,0.802992,-0.3125,-0.25,0.25,-0.130371,0.0322266,0.987793
1485545690070555,0.029089,0.128742,0.802987,0.25,0,0.3125,-0.126953,0.0195313,0.992188
1485545690093055,0.0296858,0.128889,0.80304,1.5625,0.3125,0.0625,-0.130859,0.0292969,0.992676
1485545690115579,0.0305651,0.129056,0.803264,2,0.125,0.4375,-0.133301,0.0371094,0.995117
1485545690130643,0.0307264,0.129121,0.80328,0.75,-0.125,0.3125,-0.13623,0.0419922,0.993652
1485545690152658,0.0307264,0.129121,0.80328,-0.375,-0.1875,0.1875,-0.130859,0.0327148,0.991211
1485545690175174,0.0307264,0.129121,0.80328,0.0625,-0.25,0.0625,-0.131836,0.0356445,0.992188
1485545690190176,0.0307264,0.129121,0.80328,0.25,-0.0625,0.125,-0.131836,0.0307617,0.998047
1485545690212692,0.0307264,0.129121,0.80328,0.5625,0.0625,0.3125,-0.134766,0.0341797,0.997559
1485545690238210,0.0307748,0.129234,0.80329,0.5,-0.1875,0.3125,-0.139648,0.0395508,0.995605
1485545690251719,0.0308891,0.129178,0.803263,-0.375,-0.375,0.1875,-0.138672,0.0424805,1.00244
1485545690275736,0.0306228,0.129162,0.803388,-1.1875,-0.375,0.1875,-0.131348,0.0395508,0.994629
1485545690295250,0.0303728,0.128872,0.803499,-1.0625,-0.3125,0.3125,-0.123047,0.0332031,0.996582
1485545690311798,0.0303728,0.128872,0.803499,-0.125,-0.125,0.375,-0.128906,0.0283203,0.998535
1485545690332813,0.0304212,0.128985,0.803509,0.6875,0,0.4375,-0.134277,0.0336914,0.993652
1485545690355338,0.0304212,0.128985,0.803509,0.1875,-0.0625,0.4375,-0.135254,0.034668,0.998535
1485545690371850,0.0304212,0.128985,0.803509,-0.3125,-0.1875,0.375,-0.131836,0.0371094,0.993164
1485545690392864,0.0304212,0.128985,0.803509,-0.8125,-0.3125,0.1875,-0.135742,0.0317383,0.998535
1485545690415381,0.0304695,0.129098,0.80352,-0.375,-0.1875,0.1875,-0.132813,0.0273438,1
1485545690431893,0.0304695,0.129098,0.80352,0.75,-0.125,0.3125,-0.132813,0.0322266,1.00195
1485545690452907,0.0304695,0.129098,0.80352,0.5,-0.25,0.4375,-0.130371,0.0356445,1
1485545690475422,0.0304695,0.129098,0.80352,-0.3125,-0.125,0.375,-0.133301,0.03125,0.994141
1485545690491939,0.0304695,0.129098,0.80352,0.3125,0,-0.125,-0.137207,0.0263672,0.992188
1485545690512949,0.0307761,0.129226,0.803257,1.375,0.125,-0.5,-0.133301,0.0229492,0.989746
1485545690535470,0.0313153,0.129267,0.803187,2.0625,0.125,-0.5,-0.127441,0.0268555,0.995605
1485545690551977,0.0326787,0.129352,0.803149,3.5,0.3125,0,-0.128418,0.0390625,0.991699
1485545690572991,0.0342291,0.129498,0.803538,2.8125,0.3125,0.75,-0.132813,0.0532227,0.999023
1485545690595513,0.0343905,0.129564,0.803555,0,0.125,0.9375,-0.141113,0.0605469,1.00049
1485545690612029,0.0339644,0.129751,0.803941,-2.5625,-0.5,0.9375,-0.143555,0.0498047,0.998535
1485545690633039,0.0327326,0.129604,0.804212,-3.9375,-0.8125,0.875,-0.13916,0.0361328,0.995117
1485545690655550,0.0317254,0.12937,0.804528,-3.3125,-1,0.875,-0.132324,0.034668,0.994629
1485545690671551,0.0308391,0.12909,0.804998,-2.875,-0.75,1.1875,-0.125488,0.0332031,0.995605
1485545690693067,0.0298898,0.128964,0.80544,-2.8125,-0.4375,1.375,-0.131348,0.0288086,0.991211
1485545690715583,0.0291489,0.129024,0.805943,-2.4375,-0.3125,1.3125,-0.136719,0.0317383,0.990723
1485545690731594,0.0284,0.129083,0.806298,-2.8125,-0.4375,1,-0.137207,0.0317383,0.999512
1485545690753109,0.0274506,0.128958,0.806742,-3.3125,-0.5625,1,-0.134277,0.0366211,0.995605
1485545690782630,0.0262255,0.128824,0.807198,-4.25,-1,1.125,-0.13623,0.0302734,0.992188
1485545690793137,0.0245081,0.128495,0.807461,-4.6875,-0.875,0.75,-0.130371,0.0195313,0.991211
1485545690812651,0.0229348,0.128236,0.807478,-3.125,-0.8125,0.375,-0.126953,0.00537109,0.994629
1485545690835167,0.0229348,0.128236,0.807478,-0.625,-0.25,0,-0.129395,0.00488281,0.998047
1485545690853180,0.0232497,0.128364,0.807361,1.75,0.1875,-0.0625,-0.129395,0.0141602,0.994629
1485545690875696,0.0243952,0.128543,0.807455,2.8125,0.25,0.125,-0.134766,0.0273438,0.996582
1485545690895210,0.0252666,0.128706,0.807529,2,0.0625,0.0625,-0.135742,0.0322266,0.999023
1485545690913222,0.0252666,0.128706,0.807529,0.75,0,-0.1875,-0.132324,0.0302734,0.991211
1485545690932736,0.0252666,0.128706,0.807529,0.875,0.0625,-0.5625,-0.131348,0.0180664,0.992188
1485545690955252,0.0260172,0.128916,0.807449,2.25,0.1875,-0.25,-0.129883,0.0253906,0.99707
1485545690977768,0.0272272,0.128934,0.80754,2.5625,0.125,0.25,-0.130859,0.0385742,0.996094
1485545690992778,0.0279953,0.129139,0.807724,1,-0.1875,0.3125,-0.139648,0.0415039,0.999023
1485545691015294,0.0279953,0.129139,0.807724,-0.75,-0.375,0.0625,-0.134766,0.0341797,0.999023
1485545691037810,0.0279953,0.129139,0.807724,-1,-0.1875,0,-0.131836,0.0263672,0.994629
1485545691052820,0.0279953,0.129139,0.807724,-0.1875,-0.25,0.1875,-0.133789,0.0273438,0.995117
1485545691075337,0.0278825,0.129187,0.807718,0.25,-0.4375,0.4375,-0.133789,0.0273438,0.99707
1485545691097852,0.0280439,0.129252,0.807734,-0.1875,-0.3125,0.25,-0.134277,0.0332031,0.994141
1485545691112863,0.0280439,0.129252,0.807734,0,-0.1875,0.125,-0.128418,0.0322266,0.996582
1485545691135379,0.0280439,0.129252,0.807734,-0.25,-0.125,0.4375,-0.135742,0.0307617,0.998535
1485545691157895,0.0280439,0.129252,0.807734,-0.4375,-0.1875,0.375,-0.132324,0.0336914,0.996094
1485545691172905,0.0280925,0.129365,0.807745,-0.5625,-0.625,0.5625,-0.13623,0.0332031,0.996582
1485545691195421,0.027729,0.129124,0.80785,-1.25,-0.625,0.25,-0.129883,0.03125,0.996582
1485545691217937,0.0270927,0.128858,0.807901,-1.5,-0.6875,0.3125,-0.128418,0.0219727,0.993652
1485545691232981,0.0270927,0.128858,0.807901,-0.375,-0.25,0.1875,-0.129883,0.0185547,0.992188
1485545691255510,0.0270927,0.128858,0.807901,0.9375,-0.0625,0.125,-0.134277,0.0244141,0.993652
1485545691278025,0.0270927,0.128858,0.807901,0.9375,0,0.0625,-0.133301,0.0283203,1
1485545691293033,0.0275771,0.129053,0.807949,1,0,0.125,-0.136719,0.0317383,0.993652
1485545691315549,0.0275771,0.129053,0.807949,0.5625,-0.125,0.3125,-0.133301,0.0385742,1.00146
1485545691338070,0.0276257,0.129166,0.807959,-0.75,-0.1875,0.375,-0.133789,0.0385742,0.995117
1485545691353081,0.0273689,0.129144,0.8082,-1.4375,-0.5,0.4375,-0.135254,0.0361328,0.994629
1485545691383102,0.0265696,0.128822,0.808268,-1.625,-0.5625,0.3125,-0.126465,0.0175781,0.993652
1485545691397596,0.0265696,0.128822,0.808268,-0.625,-0.4375,-0.0625,-0.129395,0.0112305,0.991699
1485545691414108,0.0267215,0.128893,0.808169,1,0.125,-0.1875,-0.126465,0.0200195,0.997559
1485545691435123,0.0278202,0.128951,0.808222,2.5625,0.25,0.125,-0.128906,0.0366211,0.99707
1485545691458148,0.0279817,0.129016,0.808238,0.25,-0.125,0.4375,-0.137695,0.0473633,1.00195
1485545691474150,0.0280945,0.128968,0.808243,-0.8125,-0.625,0.5,-0.134766,0.0419922,0.993164
1485545691495165,0.0276747,0.12889,0.808501,-2.125,-0.5,0.4375,-0.130859,0.0375977,0.993652
1485545691517715,0.0267078,0.128771,0.808684,-2.1875,-0.75,0.5,-0.13623,0.0209961,0.992676
1485545691534246,0.0262313,0.128578,0.808784,-1.25,-0.5,0.4375,-0.127441,0.0229492,0.993164
1485545691555273,0.0262313,0.128578,0.808784,-0.8125,-0.4375,0.6875,-0.128418,0.0214844,0.996094
1485545691577788,0.0262313,0.128578,0.808784,0.0625,-0.1875,0.5625,-0.129883,0.0317383,0.996094
1485545691594298,0.02628,0.128691,0.808794,-0.6875,-0.375,0.5625,-0.137207,0.0366211,0.994141
1485545691615313,0.0257002,0.128541,0.809004,-2.125,-0.75,0.4375,-0.134277,0.0273438,0.994629
1485545691637829,0.0250623,0.128284,0.809089,-1.625,-0.5,0.25,-0.12793,0.0219727,0.990234
1485545691655842,0.0249494,0.128332,0.809083,-0.6875,-0.3125,0.375,-0.127441,0.0200195,0.996094
1485545691675356,0.0249494,0.128332,0.809083,-0.4375,-0.375,0.375,-0.131348,0.0283203,0.996094
1485545691697862,0.0251109,0.128396,0.809099,-0.75,-0.4375,0.3125,-0.129883,0.0297852,0.994141
1485545691714385,0.0247975,0.128261,0.809182,-1.375,-0.4375,0.4375,-0.131836,0.03125,0.999512
1485545691735397,0.0243697,0.128182,0.809294,-1.3125,-0.4375,0.3125,-0.131836,0.0273438,0.993164
1485545691757913,0.0239435,0.128094,0.809372,-1.1875,-0.5,0.375,-0.131836,0.0209961,0.993164
1485545691775927,0.0239435,0.128094,0.809372,-0.5625,-0.3125,0.25,-0.125977,0.0209961,0.993652
1485545691795440,0.0238307,0.128143,0.809366,0.0625,-0.3125,0.25,-0.127441,0.0205078,0.994141
1485545691817956,0.0239435,0.128094,0.809372,0.5625,-0.0625,-0.0625,-0.130371,0.0249023,0.998047
1485545691835968,0.0239435,0.128094,0.809372,0.1875,-0.1875,0.25,-0.130859,0.0332031,1.00439
1485545691855482,0.0239435,0.128094,0.809372,-0.4375,-0.375,0.25,-0.131348,0.0239258,0.996582
1485545691877998,0.0239435,0.128094,0.809372,-0.4375,-0.25,0,-0.130859,0.0185547,0.996582
1485545691895512,0.0238307,0.128143,0.809366,0.25,-0.1875,-0.0625,-0.128418,0.0209961,1.00049
1485545691915515,0.0239435,0.128094,0.809372,0.9375,-0.0625,0.125,-0.129883,0.0268555,0.996094
1485545691938032,0.0239922,0.128207,0.809382,0.4375,-0.125,0.3125,-0.129883,0.0302734,0.995605
1485545691955544,0.0239922,0.128207,0.809382,-0.25,-0.125,0.375,-0.131348,0.0307617,0.999023
1485545691975558,0.0239922,0.128207,0.809382,-0.75,-0.375,0.4375,-0.131348,0.0244141,0.995605
1485545691997573,0.0239922,0.128207,0.809382,-0.3125,-0.1875,0.3125,-0.129883,0.0195313,0.998535
1485545692015586,0.0239922,0.128207,0.809382,0.3125,-0.125,0.25,-0.131348,0.0249023,0.992676
1485545692035608,0.0239922,0.128207,0.809382,0.5625,-0.125,0.25,-0.127441,0.027832,0.993652
1485545692057616,0.0239922,0.128207,0.809382,0.125,-0.125,0.25,-0.134766,0.0273438,0.995117
1485545692083133,0.0240408,0.12832,0.809392,-0.25,-0.125,0.375,-0.129883,0.027832,0.994629
1485545692095141,0.0240408,0.12832,0.809392,-0.0625,-0.125,0.125,-0.131348,0.0263672,0.999023
1485545692117657,0.0240408,0.12832,0.809392,0.3125,-0.125,0.3125,-0.134277,0.0239258,0.996094
1485545692135671,0.0240408,0.12832,0.809392,0.4375,0.0625,0.3125,-0.133301,0.03125,0.992188
1485545692155199,0.0242023,0.128385,0.809407,0.4375,-0.1875,0.5,-0.134277,0.0297852,0.995117
1485545692177699,0.0242023,0.128385,0.809407,0.0625,0.0625,0.25,-0.129395,0.0283203,0.995117
1485545692195723,0.0242023,0.128385,0.809407,-0.0625,-0.1875,0.4375,-0.132813,0.027832,0.994141
1485545692215237,0.0242101,0.128387,0.809555,-0.0625,-0.25,0.5,-0.12793,0.0302734,0.997559
1485545692237751,0.0242101,0.128387,0.809555,-0.25,-0.125,0.625,-0.128906,0.0268555,0.989746
1485545692255764,0.0242101,0.128387,0.809555,-0.375,-0.0625,0.5,-0.132813,0.0249023,0.989258
1485545692275283,0.0242509,0.128498,0.809418,-0.625,-0.125,0.25,-0.132813,0.0209961,0.996582
1485545692305299,0.0242023,0.128385,0.809407,0.125,-0.1875,0.25,-0.129395,0.0205078,0.995605
1485545692315807,0.0246945,0.128581,0.809602,1.125,0,0.375,-0.131348,0.0288086,0.992188
1485545692335320,0.0248073,0.128532,0.809607,0.75,-0.25,0.5625,-0.135742,0.0361328,0.998047
1485545692357836,0.024856,0.128645,0.809618,-0.4375,-0.3125,0.4375,-0.134277,0.0366211,0.994141
1485545692375848,0.0245913,0.128623,0.809711,-1.25,-0.375,0.3125,-0.132813,0.0307617,0.995605
1485545692396855,0.0245913,0.128623,0.809711,-0.9375,-0.3125,0.3125,-0.133301,0.0195313,0.995117
1485545692417869,0.0245913,0.128623,0.809711,-0.125,-0.3125,0.375,-0.132324,0.0205078,0.993164
1485545692435882,0.0245913,0.128623,0.809711,0.0625,-0.1875,0.4375,-0.124512,0.0244141,0.99707
1485545692456897,0.0245913,0.128623,0.809711,0.4375,-0.125,0.5,-0.128906,0.0244141,0.991211
1485545692477912,0.0245913,0.128623,0.809711,0.75,0.125,-0.125,-0.135742,0.0263672,0.992188
1485545692500428,0.0245913,0.128623,0.809711,0.4375,0.0625,-0.125,-0.137207,0.0292969,1.00049
1485545692516939,0.0246399,0.128736,0.809721,0.125,0.0625,-0.0625,-0.131348,0.0356445,0.992676
1485545692537954,0.0247527,0.128687,0.809727,-0.5,-0.25,0.0625,-0.131836,0.0336914,0.999023
1485545692560470,0.0247527,0.128687,0.809727,-0.625,-0.125,-0.1875,-0.130859,0.0239258,0.99707
1485545692576982,0.0246399,0.128736,0.809721,-0.125,0,-0.1875,-0.133301,0.0209961,0.997559
1485545692597996,0.0246399,0.128736,0.809721,0.25,0,-0.1875,-0.129395,0.0224609,0.996582
1485545692620512,0.0246399,0.128736,0.809721,0.1875,-0.0625,0.0625,-0.129883,0.0283203,0.992188
1485545692636523,0.0246399,0.128736,0.809721,0.25,0,-0.0625,-0.132324,0.0273438,0.992188
1485545692658066,0.0248014,0.1288,0.809737,-0.0625,0.0625,0,-0.132324,0.0371094,0.996582
1485545692680567,0.0248014,0.1288,0.809737,-0.6875,-0.1875,0.0625,-0.135254,0.03125,0.997559
1485545692698083,0.0244222,0.128834,0.809858,-1.1875,-0.25,-0.0625,-0.135254,0.0253906,0.99707
1485545692717595,0.0244222,0.128834,0.809858,-0.6875,-0.1875,-0.1875,-0.129395,0.0239258,0.99707
1485545692740111,0.0244222,0.128834,0.809858,0.0625,-0.0625,-0.125,-0.129883,0.0224609,0.995117
1485545692758125,0.0244709,0.128947,0.809868,0.8125,0.0625,-0.1875,-0.133301,0.0253906,0.99707
1485545692777632,0.0244709,0.128947,0.809868,0.8125,0.0625,-0.1875,-0.136719,0.0317383,0.998047
1485545692800185,0.0244709,0.128947,0.809868,0,-0.125,-0.0625,-0.133301,0.0317383,1.00098
1485545692818193,0.0246323,0.129012,0.809884,-0.3125,-0.0625,0,-0.130371,0.0336914,0.994629
1485545692837712,0.0246323,0.129012,0.809884,-0.625,-0.125,-0.0625,-0.131836,0.0297852,0.994629
1485545692860227,0.0246323,0.129012,0.809884,-0.3125,-0.0625,-0.125,-0.132324,0.0239258,0.995117
1485545692878234,0.0246323,0.129012,0.809884,-0.1875,-0.0625,0.125,-0.129395,0.0253906,0.999023
1485545692897754,0.0246323,0.129012,0.809884,-0.375,0,0,-0.130859,0.0263672,1.00195
1485545692920265,0.0246323,0.129012,0.809884,0.0625,0.0625,0.0625,-0.129883,0.027832,0.996094
1485545692938278,0.0246323,0.129012,0.809884,-0.3125,0,0.125,-0.130859,0.0307617,0.99707
1485545692957783,0.0246323,0.129012,0.809884,-0.5625,-0.125,0.0625,-0.129883,0.0209961,0.991699
1485545692980309,0.0246323,0.129012,0.809884,0.0625,0,-0.125,-0.132813,0.0219727,0.996582
1485545692998322,0.0246323,0.129012,0.809884,0.25,0.0625,0,-0.132324,0.0292969,0.993164
1485545693017835,0.024681,0.129125,0.809894,-0.1875,0,0,-0.131836,0.0268555,0.995605
1485545693040348,0.024681,0.129125,0.809894,-0.3125,0,-0.0625,-0.131836,0.0249023,1.00049
1485545693058361,0.024681,0.129125,0.809894,0.125,0.0625,-0.125,-0.130859,0.0263672,0.996582
1485545693077875,0.024681,0.129125,0.809894,0.125,0,0.125,-0.133301,0.0302734,0.993652
1485545693100426,0.024681,0.129125,0.809894,-0.625,-0.125,0.0625,-0.128906,0.0268555,0.992676
1485545693118439,0.0247938,0.129076,0.8099,0.3125,0,0.125,-0.127441,0.0341797,0.995605
1485545693137948,0.0248425,0.129189,0.80991,-0.875,-0.1875,0.375,-0.137695,0.0366211,0.997559
1485545693160463,0.0244067,0.129108,0.809873,-1.375,-0.25,0.125,-0.132813,0.0249023,0.996094
1485545693178477,0.023866,0.129077,0.809979,-1.1875,-0.0625,0.0625,-0.127441,0.0195313,0.997559
1485545693197990,0.023866,0.129077,0.809979,-0.5625,-0.125,-0.4375,-0.131348,0.0126953,0.999023
1485545693220511,0.0238503,0.129074,0.809683,1.0625,0.0625,-0.5,-0.124512,0.0112305,0.993652
1485545693238018,0.0249474,0.129139,0.809768,2.5625,0.375,0,-0.130859,0.0327148,0.998535
1485545693258032,0.0259805,0.129366,0.809857,1.375,0.125,0,-0.137207,0.0449219,0.99707
1485545693280561,0.0260292,0.129479,0.809868,-0.9375,-0.1875,0.125,-0.136719,0.0375977,1.00049
1485545693298060,0.0253678,0.129494,0.80982,-1.875,-0.3125,-0.125,-0.134277,0.0244141,0.999023
1485545693319075,0.0253678,0.129494,0.80982,-0.75,-0.3125,-0.0625,-0.130859,0.0209961,0.987793
1485545693340581,0.0253191,0.129381,0.809809,-0.125,-0.25,0.125,-0.128418,0.0263672,0.99707
1485545693358103,0.0253191,0.129381,0.809809,0.4375,-0.0625,0.125,-0.124512,0.0253906,0.992188
1485545693379118,0.0253191,0.129381,0.809809,-0.125,0.125,0.1875,-0.129883,0.0297852,0.997559
1485545693400137,0.0253678,0.129494,0.80982,0.0625,-0.0625,0.125,-0.135742,0.0258789,0.994629
1485545693418150,0.0253678,0.129494,0.80982,-0.5,-0.0625,0,-0.138184,0.0297852,0.994141
1485545693439165,0.0253678,0.129494,0.80982,-0.875,-0.1875,0.0625,-0.132813,0.0327148,0.989746
1485545693460175,0.0253678,0.129494,0.80982,-1,-0.25,0.125,-0.130859,0.0268555,0.997559
1485545693478188,0.0249806,0.129526,0.809793,-1.125,-0.25,0.125,-0.131836,0.019043,0.996094
1485545693499208,0.0248678,0.129575,0.809788,-0.375,-0.125,-0.1875,-0.132813,0.0205078,0.994141
1485545693520217,0.0248678,0.129575,0.809788,0.3125,-0.0625,0.0625,-0.133301,0.0273438,0.990723
1485545693538230,0.0248678,0.129575,0.809788,0,-0.0625,0,-0.133301,0.0249023,0.998535
1485545693559245,0.0249806,0.129526,0.809793,-0.1875,-0.125,0.0625,-0.131348,0.0322266,1.00488
1485545693580249,0.0249806,0.129526,0.809793,-0.25,0.0625,0,-0.133789,0.0292969,0.999512
1485545693598272,0.0250293,0.129639,0.809803,-0.4375,-0.0625,0,-0.133301,0.027832,0.997559
1485545693619325,0.0250293,0.129639,0.809803,-0.625,-0.3125,-0.125,-0.132324,0.0229492,0.99707
1485545693640340,0.0249806,0.129526,0.809793,-0.3125,-0.1875,-0.1875,-0.126465,0.0283203,0.994141
1485545693658352,0.0249806,0.129526,0.809793,-0.4375,-0.25,0,-0.130859,0.0214844,0.998047
1485545693680874,0.0248678,0.129575,0.809788,0.25,0.1875,-0.1875,-0.132324,0.0209961,0.992188
1485545693700382,0.0249165,0.129687,0.809798,0.875,0.1875,-0.25,-0.131348,0.0253906,0.98877
1485545693718395,0.0254651,0.12972,0.80984,1.125,0.0625,-0.25,-0.131836,0.0302734,0.995605
1485545693740910,0.0255779,0.129672,0.809846,0.6875,0,-0.0625,-0.130859,0.0371094,0.991211
1485545693760424,0.0255779,0.129672,0.809846,0.0625,0,-0.0625,-0.128418,0.0336914,0.992676
1485545693778448,0.0255779,0.129672,0.809846,-0.625,-0.125,-0.125,-0.133789,0.0322266,0.999023
1485545693800958,0.0256266,0.129785,0.809856,-1,-0.125,-0.0625,-0.132324,0.0268555,0.99707
1485545693820466,0.0256266,0.129785,0.809856,-0.5625,-0.125,0,-0.131348,0.0249023,0.993652
1485545693838008,0.0256266,0.129785,0.809856,0.1875,-0.0625,0.125,-0.132813,0.0239258,0.993164
1485545693861025,0.0256266,0.129785,0.809856,0.3125,0.0625,0,-0.129883,0.027832,0.996094
1485545693880537,0.0256266,0.129785,0.809856,-0.25,0,0,-0.12793,0.0283203,1
1485545693898049,0.0256266,0.129785,0.809856,-0.0625,0,-0.0625,-0.129395,0.0249023,0.993652
1485545693920565,0.0257394,0.129736,0.809862,0.1875,0.0625,-0.0625,-0.133789,0.0302734,0.996582
1485545693940579,0.0257394,0.129736,0.809862,0.375,0.0625,-0.0625,-0.129883,0.03125,0.99707
1485545693958092,0.0257394,0.129736,0.809862,0.125,0.0625,0,-0.133789,0.0283203,0.996094
1485545693980613,0.0257394,0.129736,0.809862,-0.125,0.0625,-0.125,-0.130859,0.03125,0.995117
1485545694000126,0.0257881,0.129849,0.809872,-0.25,0,-0.125,-0.134277,0.0273438,0.99707
1485545694018139,0.0257881,0.129849,0.809872,-0.25,-0.1875,-0.1875,-0.133789,0.0249023,0.993164
1485545694040655,0.0257881,0.129849,0.809872,-0.3125,-0.0625,-0.125,-0.132324,0.0258789,0.993164
1485545694060163,0.0257881,0.129849,0.809872,0.3125,0,-0.125,-0.130371,0.0263672,0.999023
1485545694078176,0.0257881,0.129849,0.809872,-0.25,0.0625,0.0625,-0.132813,0.034668,0.99707
1485545694100692,0.0257881,0.129849,0.809872,-0.375,-0.125,-0.125,-0.131836,0.0268555,0.990723
1485545694120210,0.0257881,0.129849,0.809872,-0.25,0,0.0625,-0.132813,0.0273438,0.999023
1485545694142722,0.0259496,0.129914,0.809888,-0.25,-0.1875,-0.125,-0.133789,0.0307617,0.996094
1485545694160736,0.0259496,0.129914,0.809888,-0.375,-0.125,0.1875,-0.132324,0.0288086,0.999023
1485545694180248,0.0256929,0.129893,0.810129,-1.375,-0.3125,0.5,-0.134277,0.0351563,0.992188
1485545694205766,0.025154,0.129854,0.810201,-1.9375,-0.1875,0.375,-0.131836,0.0283203,0.994141
1485545694220782,0.0246133,0.129824,0.810306,-1.125,-0.125,0.3125,-0.12793,0.0209961,0.990723
1485545694240290,0.0246133,0.129824,0.810306,-1,-0.1875,0.0625,-0.133301,0.0151367,0.995117
1485545694262811,0.0245005,0.129872,0.810301,-0.375,-0.1875,-0.4375,-0.129883,0.0126953,1.00049
1485545694280824,0.0249907,0.129798,0.810218,1.5625,0.1875,-0.375,-0.125977,0.0229492,0.998047
1485545694301833,0.0258641,0.129951,0.810259,1.5,0.125,0,-0.134766,0.0390625,0.998047
1485545694322856,0.0259769,0.129903,0.810265,-0.375,-0.125,0.125,-0.133789,0.0390625,0.998535
1485545694340862,0.0256539,0.129774,0.810233,-1.4375,-0.375,0.0625,-0.130859,0.0332031,1.00098
1485545694361882,0.0250491,0.129904,0.810343,-1.5625,-0.3125,0.125,-0.135742,0.0244141,1.00293
1485545694382891,0.0250491,0.129904,0.810343,-0.9375,-0.3125,0.125,-0.128906,0.0229492,0.993164
1485545694400893,0.0250491,0.129904,0.810343,-0.375,-0.1875,0.0625,-0.128906,0.0195313,0.993164
1485545694421908,0.0250004,0.129791,0.810333,0.125,0,0,-0.129883,0.0214844,0.993652
1485545694442923,0.0250004,0.129791,0.810333,0.3125,0.25,-0.0625,-0.128906,0.0205078,0.993164
1485545694460935,0.0250491,0.129904,0.810343,0.8125,0.3125,-0.3125,-0.134277,0.0258789,0.996094
1485545694481950,0.0256952,0.130163,0.810407,1.1875,0.125,0,-0.138184,0.0356445,0.993652
1485545694502966,0.0256952,0.130163,0.810407,0.125,-0.125,0.1875,-0.134766,0.0351563,0.998047
1485545694520978,0.0252594,0.130082,0.810369,-1.5625,-0.3125,0,-0.132324,0.0283203,0.999023
1485545694541993,0.0245899,0.130096,0.810173,-1.125,-0.1875,-0.4375,-0.132324,0.0112305,0.998047
1485545694563008,0.0244284,0.130031,0.810158,0.6875,0.0625,-0.5625,-0.128418,0.0185547,0.98877
1485545694581021,0.0252514,0.13008,0.810222,1.8125,0.25,-0.125,-0.12793,0.0292969,0.993652
1485545694603036,0.0261231,0.130242,0.810296,1.5,0.1875,0.125,-0.136719,0.0390625,0.996582
1485545694623050,0.0261718,0.130355,0.810306,0.1875,0.1875,0.1875,-0.13623,0.0410156,0.999023
1485545694640589,0.0258414,0.130502,0.810438,-1.5,-0.1875,0.1875,-0.139648,0.0341797,0.996094
1485545694663114,0.0253334,0.13058,0.810257,-1.875,-0.3125,-0.3125,-0.13623,0.0288086,0.998047
1485545694682628,0.0245745,0.13037,0.810189,-1.625,-0.5,-0.1875,-0.129883,0.0175781,0.993164
1485545694700632,0.0245745,0.13037,0.810189,0,-0.1875,-0.3125,-0.127441,0.0205078,0.990723
1485545694723148,0.0245745,0.13037,0.810189,0.625,0.125,0.1875,-0.129883,0.0258789,0.992676
1485545694742661,0.0245745,0.13037,0.810189,-0.1875,0.0625,0.125,-0.133789,0.03125,0.996094
1485545694760673,0.0245745,0.13037,0.810189,-0.4375,0.0625,-0.0625,-0.136719,0.027832,0.997559
1485545694783189,0.0246873,0.130322,0.810194,-0.625,-0.1875,0,-0.132324,0.0317383,0.99707
1485545694805705,0.0246873,0.130322,0.810194,-0.6875,-0.3125,0.0625,-0.129883,0.0239258,0.995605
1485545694820716,0.0246873,0.130322,0.810194,-0.625,-0.1875,0,-0.129395,0.0253906,0.992188
1485545694843232,0.0247361,0.130435,0.810204,-0.5625,-0.0625,-0.125,-0.135254,0.0239258,0.994629
1485545694862745,0.0245745,0.13037,0.810189,-0.1875,0.0625,0,-0.12793,0.0219727,0.992676
1485545694880759,0.0246873,0.130322,0.810194,0.5,0,0.0625,-0.129883,0.0263672,0.998535
1485545694903274,0.0246873,0.130322,0.810194,0.5,0,0,-0.131836,0.0292969,0.994141
1485545694922788,0.0247361,0.130435,0.810204,-0.0625,0,-0.1875,-0.134766,0.0292969,0.998047
1485545694940801,0.0247361,0.130435,0.810204,-0.375,-0.0625,-0.375,-0.130371,0.0249023,0.994141
1485545694963317,0.0247361,0.130435,0.810204,0.125,-0.0625,-0.1875,-0.133789,0.0244141,0.993164
1485545694982830,0.0247361,0.130435,0.810204,0.625,0.0625,-0.3125,-0.131836,0.0258789,1.00146
1485545695000843,0.0247361,0.130435,0.810204,0.8125,0.0625,-0.1875,-0.133789,0.0273438,0.998047
1485545695023358,0.0247361,0.130435,0.810204,0.625,0.1875,-0.3125,-0.129395,0.0268555,1.00146
1485545695042872,0.0247361,0.130435,0.810204,0.875,0.25,-0.1875,-0.134766,0.0288086,0.993652
1485545695060897,0.0247848,0.130548,0.810215,0.75,0.125,-0.125,-0.136719,0.0307617,0.991699
1485545695083416,0.0248976,0.130499,0.81022,0.1875,0.0625,0,-0.132813,0.0332031,0.993652
1485545695102925,0.0248976,0.130499,0.81022,-0.6875,-0.125,0.0625,-0.135254,0.0336914,0.994141
1485545695120938,0.0249463,0.130612,0.810231,-1,-0.1875,0.0625,-0.133789,0.0336914,0.999023
1485545695143452,0.0246799,0.130598,0.810357,-1.125,-0.1875,0.0625,-0.135254,0.027832,0.997559
1485545695162966,0.0244153,0.130575,0.81045,-1.125,-0.25,0.125,-0.133789,0.0268555,0.993652
1485545695180984,0.0244153,0.130575,0.81045,-0.625,-0.25,0.1875,-0.131348,0.0253906,0.991699
1485545695203496,0.0244153,0.130575,0.81045,-0.8125,-0.25,0.125,-0.131836,0.0253906,0.998535
1485545695224518,0.0244153,0.130575,0.81045,-0.75,-0.1875,0.125,-0.128906,0.0229492,0.997559
1485545695240526,0.0244153,0.130575,0.81045,-0.25,-0.1875,0.1875,-0.12793,0.0273438,0.994141
1485545695263544,0.0244153,0.130575,0.81045,-0.4375,-0.1875,0.1875,-0.137207,0.0253906,0.996582
1485545695284558,0.0244153,0.130575,0.81045,-0.375,-0.0625,-0.1875,-0.132324,0.0239258,0.996582
1485545695300568,0.0244153,0.130575,0.81045,-0.4375,-0.1875,-0.0625,-0.134766,0.027832,0.993164
1485545695323080,0.0244153,0.130575,0.81045,0.375,0.0625,0.125,-0.130371,0.0205078,0.995117
1485545695344099,0.0244153,0.130575,0.81045,0.5625,0.125,0.0625,-0.134277,0.0273438,0.995117
1485545695360606,0.0244153,0.130575,0.81045,-0.25,0,-0.1875,-0.133789,0.0249023,0.991699
1485545695383122,0.0243025,0.130624,0.810445,0.4375,0,-0.625,-0.129883,0.0117188,0.998535
1485545695404144,0.0253821,0.130693,0.810268,2.3125,0.4375,-0.4375,-0.128906,0.0375977,1.00049
1485545695420651,0.0263124,0.130962,0.810468,1.625,0.1875,0.375,-0.138672,0.0390625,1.00244
1485545695443169,0.0263692,0.131076,0.810626,-1.125,-0.0625,0.25,-0.137207,0.0429688,0.999512
1485545695464178,0.0258382,0.131039,0.810846,-2.3125,-0.5,0.3125,-0.136719,0.0356445,1.00049
1485545695480691,0.0249257,0.130766,0.810908,-2.6875,-0.5,0.1875,-0.130371,0.0234375,0.990723
1485545695503211,0.0240619,0.130607,0.810982,-2,-0.5,0.25,-0.128906,0.0175781,0.991699
1485545695524226,0.0240619,0.130607,0.810982,-0.25,-0.25,0.25,-0.125488,0.0249023,0.991699
1485545695546737,0.0240619,0.130607,0.810982,-0.3125,-0.0625,0.5625,-0.128906,0.0258789,0.99707
1485545695563249,0.0240619,0.130607,0.810982,-1,0,0.3125,-0.133789,0.027832,0.99707
1485545695585770,0.0240619,0.130607,0.810982,-0.75,-0.0625,-0.0625,-0.137207,0.0219727,0.991699
1485545695600775,0.0240619,0.130607,0.810982,-0.25,-0.125,0.125,-0.131836,0.0288086,1.00195
1485545695623291,0.0241747,0.130558,0.810987,-0.625,-0.25,0.3125,-0.130859,0.0302734,1.00098
1485545695645806,0.0239101,0.130536,0.811081,-1.25,-0.375,0.3125,-0.131348,0.0292969,0.993652
1485545695660817,0.0233127,0.130391,0.811028,-1.5,-0.25,0.0625,-0.130859,0.0214844,0.996094
1485545695683333,0.0229335,0.130425,0.811149,-1.0625,-0.25,0,-0.134277,0.0205078,0.991699
1485545695705848,0.0229335,0.130425,0.811149,-0.5625,-0.125,-0.125,-0.132813,0.0175781,0.993164
1485545695725363,0.0229335,0.130425,0.811149,0.0625,-0.125,0.0625,-0.130371,0.0253906,0.99707
1485545695743376,0.0229335,0.130425,0.811149,0,-0.0625,0.0625,-0.133789,0.0288086,0.997559
1485545695765891,0.0229335,0.130425,0.811149,-0.4375,-0.0625,-0.0625,-0.132324,0.0249023,0.997559
1485545695785405,0.0229335,0.130425,0.811149,-0.25,-0.125,-0.125,-0.133789,0.0253906,0.998047
1485545695803408,0.0229335,0.130425,0.811149,-0.1875,-0.25,-0.25,-0.131348,0.0209961,0.993164
1485545695825924,0.0229822,0.130538,0.81116,0.1875,-0.1875,-0.125,-0.133789,0.0263672,0.996094
1485545695845438,0.0229822,0.130538,0.81116,-0.4375,-0.125,-0.0625,-0.130371,0.0288086,0.995605
1485545695862450,0.0229822,0.130538,0.81116,-0.0625,-0.0625,-0.25,-0.132813,0.0244141,0.996094
1485545695884966,0.0229822,0.130538,0.81116,0.4375,-0.0625,-0.25,-0.133301,0.0239258,0.995605
1485545695905980,0.0229822,0.130538,0.81116,0.4375,-0.0625,-0.125,-0.135742,0.0239258,0.993164
1485545695922493,0.023095,0.130489,0.811165,0.1875,-0.125,-0.0625,-0.131836,0.0332031,0.997559
1485545695945008,0.0231438,0.130602,0.811175,-0.3125,-0.1875,0.1875,-0.135742,0.0322266,0.993652
1485545695966035,0.0228207,0.130473,0.811144,-1.125,-0.3125,0.0625,-0.132813,0.0268555,0.99707
1485545695982547,0.0225562,0.130451,0.811237,-1.5625,-0.3125,0.1875,-0.130859,0.0302734,0.995605
1485545696005059,0.0220795,0.130259,0.811338,-1.125,-0.1875,0.0625,-0.127441,0.0205078,0.99707
1485545696026081,0.0220795,0.130259,0.811338,-0.5625,-0.1875,0.1875,-0.134277,0.0239258,0.993652
1485545696042586,0.0221283,0.130372,0.811349,-0.5,-0.25,0.3125,-0.132324,0.0263672,0.996582
1485545696065104,0.0220795,0.130259,0.811338,-1,-0.125,0.25,-0.129883,0.0219727,0.996094
1485545696086117,0.0220795,0.130259,0.811338,-0.8125,-0.1875,0.25,-0.129883,0.0224609,0.994141
1485545696102620,0.0221283,0.130372,0.811349,-0.3125,-0.3125,0.125,-0.133789,0.0229492,0.996094
1485545696125136,0.022241,0.130324,0.811354,-0.375,-0.25,0.25,-0.134766,0.0258789,1.00098
1485545696146150,0.0221283,0.130372,0.811349,-0.875,-0.3125,0.125,-0.131836,0.0209961,0.993164
1485545696162662,0.0221283,0.130372,0.811349,-0.5625,-0.25,0.0625,-0.128906,0.0185547,0.988281
1485545696185181,0.0221283,0.130372,0.811349,0.125,-0.0625,0.0625,-0.128906,0.0224609,0.992676
1485545696206192,0.0221283,0.130372,0.811349,0.0625,-0.0625,0.125,-0.135742,0.0263672,0.996094
1485545696222704,0.022241,0.130324,0.811354,-0.25,-0.125,0.1875,-0.129883,0.0263672,0.996582
1485545696244719,0.022241,0.130324,0.811354,-0.1875,-0.1875,-0.125,-0.128906,0.0229492,0.998047
1485545696265743,0.022241,0.130324,0.811354,-0.5625,-0.1875,-0.1875,-0.129883,0.0244141,0.998047
1485545696282255,0.022241,0.130324,0.811354,-0.25,-0.125,-0.125,-0.126465,0.0205078,0.992676
1485545696304762,0.0221923,0.130211,0.811344,0.25,0,-0.25,-0.129395,0.0170898,1.00146
1485545696325777,0.0228946,0.130306,0.811254,1.5,0.3125,-0.1875,-0.129395,0.0317383,0.996094
1485545696342288,0.0230561,0.13037,0.811269,0.3125,0,0.3125,-0.132324,0.034668,1.00342
1485545696364804,0.0227897,0.130356,0.811396,-1.375,-0.3125,0.25,-0.133301,0.0322266,0.999512
1485545696385819,0.0220466,0.13015,0.811624,-2.0625,-0.3125,0.3125,-0.128906,0.0214844,0.999023
1485545696402330,0.0210055,0.129923,0.811388,-2.125,-0.375,-0.1875,-0.126465,0.0102539,0.99707
1485545696424882,0.0210055,0.129923,0.811388,-0.5625,-0.25,-0.4375,-0.123535,0.00927734,0.992188
1485545696445896,0.0215054,0.129842,0.81142,1.5625,0.1875,-0.1875,-0.124512,0.0185547,0.995605
1485545696462420,0.0223283,0.12989,0.811482,1.75,0.3125,0.1875,-0.130859,0.0317383,0.99707
1485545696484933,0.022377,0.130003,0.811493,0.25,0.125,0.25,-0.137207,0.0380859,1.00098
1485545696507440,0.0221106,0.129989,0.81162,-1.375,-0.1875,0.0625,-0.135254,0.0283203,0.995605
1485545696521951,0.0212877,0.129941,0.811557,-1.9375,-0.4375,0,-0.132813,0.0151367,0.998047
1485545696544967,0.0212877,0.129941,0.811557,-0.6875,-0.3125,0,-0.12793,0.0136719,0.993164
1485545696567483,0.0212389,0.129828,0.811547,0.5,0,0,-0.12207,0.0151367,0.993164
1485545696582493,0.021562,0.129957,0.811578,1.1875,0.25,0.0625,-0.127441,0.0200195,0.991211
1485545696605009,0.0221613,0.130094,0.811596,1.5625,0.5,0,-0.133301,0.0214844,0.998535
1485545696627524,0.0229104,0.13031,0.81155,1.5625,0.4375,-0.25,-0.133301,0.0302734,1.00049
1485545696642535,0.0229592,0.130423,0.81156,0.9375,0.125,0.0625,-0.135742,0.0336914,0.999512
1485545696665060,0.0229592,0.130423,0.81156,-0.125,-0.0625,0,-0.133789,0.0327148,0.996582
1485545696687578,0.0229592,0.130423,0.81156,-0.625,-0.125,-0.0625,-0.132813,0.0249023,0.992188
1485545696702077,0.0229592,0.130423,0.81156,0.25,0.0625,-0.125,-0.132324,0.0244141,0.992676
1485545696725102,0.0230719,0.130374,0.811565,0.25,-0.0625,0,-0.127441,0.0273438,0.995605
1485545696747619,0.0230719,0.130374,0.811565,-0.25,-0.0625,0.0625,-0.128418,0.0258789,0.998047
1485545696761628,0.0230719,0.130374,0.811565,-0.0625,-0.0625,-0.125,-0.130371,0.0263672,0.994141
1485545696785145,0.0230719,0.130374,0.811565,-0.125,0,0.0625,-0.133789,0.027832,1.00195
1485545696807650,0.0230719,0.130374,0.811565,-0.375,-0.0625,-0.125,-0.130859,0.0258789,0.995117
1485545696821660,0.0231847,0.130326,0.811571,-0.0625,-0.0625,0.0625,-0.129883,0.0283203,0.994141
1485545696845177,0.0231847,0.130326,0.811571,-0.375,-0.25,0.25,-0.130371,0.0263672,1.00195
1485545696867693,0.0231847,0.130326,0.811571,-0.9375,-0.0625,0.1875,-0.129395,0.0239258,0.992676
1485545696881703,0.0231847,0.130326,0.811571,-0.4375,0,0.125,-0.132813,0.0175781,0.994629
1485545696904719,0.0230719,0.130374,0.811565,0,0.0625,0.125,-0.130371,0.0161133,0.999023
1485545696927236,0.0230719,0.130374,0.811565,0.4375,0.125,0,-0.132324,0.0258789,0.994141
1485545696941758,0.0231847,0.130326,0.811571,0.5625,0.125,0.0625,-0.129395,0.0297852,0.993652
1485545696964774,0.0232335,0.130439,0.811581,0.0625,0.0625,0.125,-0.133301,0.0322266,0.995117
1485545696987290,0.0232353,0.130431,0.811548,-0.625,-0.125,0.125,-0.133789,0.0307617,0.994629
1485545697001805,0.0233481,0.130382,0.811553,-0.5,-0.125,0.1875,-0.125488,0.0249023,0.990234
1485545697024819,0.0233481,0.130382,0.811553,-0.9375,-0.0625,0.25,-0.133301,0.0244141,1.00098
1485545697047349,0.0233481,0.130382,0.811553,-0.3125,-0.125,0,-0.129395,0.0249023,0.994141
1485545697068344,0.0233481,0.130382,0.811553,-0.125,-0.0625,0.125,-0.133301,0.0229492,0.991699
1485545697084857,0.0233481,0.130382,0.811553,-0.125,-0.0625,-0.0625,-0.131836,0.0244141,0.997559
1485545697107372,0.0233481,0.130382,0.811553,0.125,-0.0625,-0.0625,-0.131836,0.0258789,0.998047
1485545697128386,0.0233481,0.130382,0.811553,0.3125,0,-0.3125,-0.130859,0.0307617,0.996094
1485545697144898,0.0233481,0.130382,0.811553,0.375,0.1875,-0.1875,-0.131836,0.0268555,0.991699
1485545697167415,0.0233481,0.130382,0.811553,0.5625,0.0625,-0.3125,-0.131836,0.027832,0.998047
1485545697188429,0.0233481,0.130382,0.811553,0.4375,0.1875,-0.1875,-0.129395,0.0253906,0.993164
1485545697212446,0.0234609,0.130334,0.811559,0.875,0.1875,-0.1875,-0.131348,0.0244141,0.994629
1485545697227457,0.0239456,0.130527,0.811606,1,0.1875,0,-0.132813,0.03125,0.99707
1485545697248471,0.0240583,0.130479,0.811611,0.25,0,0,-0.129395,0.0297852,0.998535
1485545697264983,0.0240583,0.130479,0.811611,-0.25,-0.0625,0.0625,-0.131836,0.034668,0.992676
1485545697287499,0.0240583,0.130479,0.811611,-0.6875,-0.125,0.125,-0.129395,0.0341797,0.995605
1485545697308518,0.0241711,0.130431,0.811617,-0.9375,0,0.25,-0.129883,0.0288086,0.994141
1485545697325032,0.0242199,0.130543,0.811627,-0.3125,0,0.3125,-0.135742,0.027832,0.995117
1485545697347546,0.0242199,0.130543,0.811627,-0.8125,-0.25,0.1875,-0.128418,0.0229492,0.990723
1485545697368556,0.0242199,0.130543,0.811627,-0.75,-0.1875,-0.1875,-0.127441,0.0263672,0.989746
1485545697385068,0.0241711,0.130431,0.811617,0,0,-0.125,-0.129395,0.0209961,1.00391
1485545697407575,0.0242199,0.130543,0.811627,0.1875,0,0.1875,-0.13623,0.0356445,0.994629
1485545697430090,0.0243327,0.130495,0.811633,-0.5625,-0.1875,0.25,-0.134766,0.03125,0.999023
1485545697445101,0.0240663,0.130481,0.811759,-1.0625,-0.375,0.125,-0.13623,0.0297852,0.997559
1485545697467617,0.0235664,0.130562,0.811727,-1.375,-0.25,-0.0625,-0.135742,0.0214844,0.989258
1485545697490133,0.0235664,0.130562,0.811727,-0.8125,-0.1875,0.0625,-0.127441,0.0175781,0.997559
1485545697505143,0.0235664,0.130562,0.811727,0.875,0.0625,0,-0.127441,0.0209961,0.993652
1485545697527659,0.0241151,0.130594,0.81177,1.75,0.3125,0,-0.129395,0.0234375,0.993652
1485545697550201,0.0250357,0.130868,0.811854,1.875,0.4375,0,-0.136719,0.0351563,0.996582
1485545697564722,0.0256333,0.131013,0.811908,1.1875,0.25,-0.0625,-0.131836,0.0336914,0.995117
1485545697587236,0.025746,0.130964,0.811913,0.625,0.1875,-0.25,-0.133789,0.0361328,0.999512
1485545697609758,0.025746,0.130964,0.811913,0.5,-0.125,-0.0625,-0.130859,0.0341797,0.995117
1485545697632259,0.025746,0.130964,0.811913,-0.1875,-0.0625,-0.0625,-0.126953,0.0249023,0.993652
1485545697647279,0.025746,0.130964,0.811913,0.25,0.125,-0.25,-0.131836,0.0205078,0.993164
1485545697669797,0.0263356,0.131108,0.811819,1.625,0.3125,-0.3125,-0.132324,0.0268555,0.995605
1485545697684305,0.0268763,0.131138,0.811714,1.125,0.0625,-0.25,-0.132324,0.0336914,0.994141
1485545697707321,0.0268763,0.131138,0.811714,0.3125,0.0625,-0.125,-0.131348,0.0351563,0.998047
1485545697729827,0.0268763,0.131138,0.811714,0.5,0.125,-0.0625,-0.133301,0.0317383,0.996582
1485545697744396,0.0270379,0.131203,0.81173,-0.125,0.3125,-0.125,-0.13623,0.0317383,0.992676
1485545697767412,0.0270379,0.131203,0.81173,0.5,0.0625,-0.0625,-0.135742,0.03125,0.992188
1485545697789928,0.0270379,0.131203,0.81173,0.125,0.0625,0.0625,-0.135254,0.0375977,1.00195
1485545697804438,0.0271995,0.131267,0.811746,-0.375,-0.125,0.125,-0.131348,0.0375977,0.999023
1485545697827455,0.0271995,0.131267,0.811746,-0.4375,0.125,0.1875,-0.132813,0.0380859,0.993652
1485545697849973,0.0273122,0.131219,0.811752,-0.375,0.0625,0.4375,-0.134766,0.043457,0.993164
1485545697864480,0.0268301,0.131295,0.811982,-2.0625,-0.3125,0.5,-0.137207,0.0366211,0.998535
1485545697887496,0.0259743,0.131137,0.812202,-2.875,-0.5625,0.4375,-0.131836,0.0292969,0.993652
1485545697910004,0.0251201,0.130972,0.81239,-3,-0.4375,0.5625,-0.131348,0.0292969,0.995605
1485545697924013,0.0241532,0.130855,0.812573,-3.125,-0.625,0.6875,-0.137207,0.0322266,0.99707
1485545697947530,0.0232582,0.130579,0.812899,-3.4375,-0.625,0.875,-0.129883,0.0322266,0.995605
1485545697970046,0.0218224,0.130273,0.813332,-4.375,-0.625,1.125,-0.12793,0.0239258,0.998535
1485545697991061,0.0202757,0.13001,0.813728,-4.8125,-0.8125,1.0625,-0.128906,0.0195313,1.00098
1485545698007574,0.018445,0.129736,0.813989,-4.625,-0.625,0.6875,-0.130859,0.0112305,0.998535
1485545698030088,0.0168147,0.129647,0.814163,-4.125,-0.625,0.5,-0.129883,0.0078125,0.993164
1485545698051102,0.0157914,0.129417,0.814192,-2.375,-0.3125,0.375,-0.128418,0.00830078,0.994141
1485545698067626,0.0152993,0.129501,0.81431,-1.1875,-0.125,0.375,-0.131348,0.0102539,0.994629
1485545698090142,0.0152505,0.129388,0.8143,0,0.125,0.0625,-0.125977,0.0126953,0.997559
1485545698111154,0.0152993,0.129501,0.81431,0.5625,0.1875,-0.0625,-0.131348,0.0131836,0.995117
1485545698134243,0.0156787,0.129466,0.814187,1.3125,0.4375,-0.3125,-0.12793,0.0117188,0.996582
1485545698150240,0.0163788,0.129567,0.814128,2.5,0.5,-0.375,-0.125488,0.00830078,0.998535
1485545698171287,0.0176709,0.129802,0.813938,3.5,0.625,-0.4375,-0.132813,0.0219727,1.00049
1485545698187296,0.0190097,0.130159,0.813792,3.4375,0.4375,-0.5625,-0.133301,0.0263672,0.98877
1485545698209283,0.0203017,0.130395,0.813604,2.9375,0.5,-0.625,-0.133789,0.0317383,0.998535
1485545698231333,0.0215586,0.13053,0.813737,2.125,0.3125,-0.25,-0.136719,0.0400391,0.996094
1485545698247421,0.0216094,0.130635,0.813713,0.5,0.0625,0,-0.135254,0.0375977,0.999512
1485545698269450,0.0217222,0.130586,0.813719,-0.625,0,0.25,-0.135254,0.0307617,0.992676
1485545698290470,0.0217711,0.130699,0.813729,-1,-0.1875,0.125,-0.13623,0.0244141,0.992188
1485545698307466,0.0211636,0.130561,0.813562,-1.0625,-0.3125,-0.25,-0.130371,0.015625,0.987793
1485545698330013,0.0211636,0.130561,0.813562,-0.0625,-0.125,-0.1875,-0.127441,0.0161133,1.00049
1485545698350767,0.0217123,0.130592,0.813604,1.25,0.0625,-0.0625,-0.131836,0.0283203,0.996094
1485545698366820,0.0218739,0.130657,0.81362,0.5,0.0625,0.0625,-0.133301,0.0361328,0.999023
1485545698389861,0.0219327,0.130763,0.813745,-1.0625,-0.25,0.3125,-0.141602,0.0380859,0.996094
1485545698411875,0.0215535,0.130798,0.813866,-1.875,-0.375,0.125,-0.136719,0.0297852,0.993652
1485545698427414,0.0208531,0.130696,0.813923,-2.3125,-0.5,0.1875,-0.133301,0.0263672,0.992676
1485545698449633,0.0199402,0.130426,0.813989,-2.125,-0.5,0.1875,-0.126465,0.0146484,0.993164
1485545698472655,0.0199402,0.130426,0.813989,-1,-0.125,0.125,-0.127441,0.0131836,0.988281
1485545698487663,0.0199402,0.130426,0.813989,0.5625,0.1875,0.0625,-0.128906,0.0151367,0.991211
1485545698509737,0.020425,0.130618,0.814035,1.0625,0.3125,0.1875,-0.133789,0.0253906,0.998535
1485545698532260,0.0204329,0.130621,0.814183,0.375,0.0625,0.125,-0.137695,0.0263672,0.997559
1485545698554777,0.0205456,0.130572,0.814189,-0.1875,-0.125,0.125,-0.134277,0.0317383,1.00098
1485545698569815,0.0205945,0.130685,0.814199,-1,-0.0625,0.0625,-0.133301,0.0302734,0.991699
1485545698591832,0.0205945,0.130685,0.814199,-0.8125,-0.125,0,-0.129883,0.0166016,0.992188
1485545698606813,0.0205945,0.130685,0.814199,0.5,0,-0.1875,-0.129395,0.0214844,0.994629
1485545698629832,0.0205945,0.130685,0.814199,0.9375,0.125,-0.0625,-0.132813,0.0273438,0.996582
1485545698651849,0.0207072,0.130636,0.814204,0.5625,0.1875,0,-0.132813,0.0302734,0.99707
1485545698666860,0.02082,0.130588,0.81421,0.4375,0.125,0.0625,-0.130371,0.0351563,1.00049
1485545698689876,0.0208689,0.1307,0.81422,-0.625,-0.125,0.25,-0.135742,0.03125,0.997559
1485545698711892,0.0203301,0.130663,0.814293,-2,-0.4375,0.1875,-0.136719,0.0244141,1.00049
1485545698726904,0.0196099,0.130573,0.814121,-1.5,-0.375,-0.1875,-0.133301,0.0126953,0.993652
1485545698749923,0.0194483,0.130509,0.814105,0.1875,-0.0625,-0.5,-0.124512,0.00488281,0.993652
1485545698771939,0.0198097,0.130478,0.813721,2.375,0.375,-1,-0.124512,0,0.994629
1485545698786949,0.0211308,0.130839,0.813314,4.9375,0.6875,-1.1875,-0.131348,0.00634766,0.990723
1485545698809966,0.0230486,0.131067,0.812651,6.625,0.9375,-1.8125,-0.126953,0.00683594,0.996582
1485545698832484,0.0262255,0.131426,0.812091,9.1875,1.375,-1.75,-0.127441,0.0307617,0.995117
1485545698846878,0.0302121,0.132101,0.811586,9.6875,1.3125,-1.4375,-0.141602,0.0551758,1.00098
1485545698869906,0.0330281,0.132493,0.811421,6,0.625,-1.0625,-0.140137,0.0664063,1.00195
1485545698891922,0.0347548,0.132822,0.811316,2.75,0.1875,-0.75,-0.141602,0.0634766,1.00049
1485545698912941,0.0347548,0.132822,0.811316,-0.125,-0.25,-0.8125,-0.138184,0.0439453,0.999023
1485545698929965,0.0343563,0.132584,0.810861,-0.0625,-0.25,-1.0625,-0.124512,0.0205078,0.992188
1485545698952001,0.0352662,0.132589,0.810525,3.75,0.25,-0.9375,-0.12793,0.0205078,0.994141
1485545698973011,0.036723,0.133027,0.809738,7.4375,0.875,-1.8125,-0.137695,-0.00927734,0.981445
1485545698990024,0.0396534,0.133366,0.809555,6.5625,0.5,-0.75,-0.139648,0.0664063,0.998047
1485545699012043,0.0421063,0.133522,0.809504,3.9375,0.3125,-0.6875,-0.138184,0.0864258,0.994141
1485545699033569,0.0412843,0.132011,0.810673,-0.25,-3.5,4,-0.123535,0.00683594,1.00342
1485545699050082,0.0428963,0.132924,0.810981,1.125,1.25,0.3125,-0.148438,0.0908203,0.993652
1485545699072596,0.0432292,0.133046,0.811132,-2.625,-0.5,0,-0.14502,0.0883789,0.979004
1485545699093611,0.0426604,0.133421,0.810327,1.4375,0.1875,-2.0625,-0.145508,0.00244141,0.983398
1485545699110124,0.0435984,0.133281,0.809463,4.1875,-0.25,-2.375,-0.130859,0.0292969,0.999023
1485545699132655,0.0452877,0.133353,0.80853,5,0,-2.8125,-0.131836,0.0454102,1.00195
1485545699153651,0.0467697,0.132716,0.807155,3.75,-0.5625,-3.8125,-0.112305,0.0610352,0.981445
1485545699170153,0.0422694,0.131567,0.806886,-6.8125,-2.25,0.0625,-0.12207,-0.043457,1.03809
1485545699192682,0.04245,0.132797,0.804017,8.4375,1.6875,-7.1875,-0.154297,-0.0571289,0.981445
1485545699213234,0.0475638,0.133141,0.799528,18.8125,0.4375,-12.5625,-0.133301,0.0126953,0.993652
1485545699229743,0.0544858,0.133546,0.797559,14.375,-1.3125,-6.375,-0.162598,0.144043,0.981445
1485545699252271,0.0557659,0.131683,0.793451,8.625,-5.8125,-11.125,-0.128418,0.0078125,1.01709
1485545699273274,0.0543578,0.12948,0.788839,-2.875,-7.25,-12.75,-0.136719,0.0610352,0.99707
1485545699289286,0.0493585,0.127165,0.782645,-4,-6.3125,-16.4375,-0.108398,-0.0678711,0.977051
1485545699312307,0.0527575,0.126833,0.775096,14.1875,-1.8125,-21.125,-0.119141,0.0239258,0.961914
1485545699333321,0.0544611,0.126284,0.767271,11.5,-1,-21.6875,-0.100586,0,1.00781
1485545699349332,0.053198,0.125484,0.759899,-0.5625,-4.375,-20.8125,-0.137695,0.0463867,0.995117
1485545699372344,0.0411065,0.122346,0.747973,-22.8125,-7,-32.6875,-0.0727539,-0.0654297,1.02832
1485545699394903,0.0366756,0.119284,0.735073,-4.8125,-11.125,-36.0625,-0.130371,-0.0131836,0.973145
1485545699409411,0.0349606,0.116456,0.719395,-1.4375,-12.25,-44.1875,-0.151855,0.0615234,0.96875
1485545699432430,0.0324265,0.111098,0.711078,-6.75,-10.0625,-23.5625,-0.0185547,0.0581055,0.9375
1485545699454931,0.0183781,0.108647,0.7026,-43.9375,-11.4375,-24.625,-0.15332,0.107422,0.904297
1485545699469441,-0.00937138,0.101352,0.690453,-70.9375,-16.875,-34.375,-0.0361328,-0.0800781,0.980957
1485545699492457,-0.0329006,0.0998975,0.681277,-69.6875,-5.6875,-26.6875,-0.127441,0.0410156,0.959961
1485545699514974,-0.0819904,0.0972756,0.677037,-142.125,-6.625,-12.8125,-0.0712891,0.0786133,0.85498
1485545699529484,-0.139425,0.0983912,0.665967,-160,8.5,-30.4375,0.0214844,-0.218262,0.899902
1485545699552500,-0.181011,0.102752,0.655774,-99.6875,17.5625,-25,-0.0874023,-0.403809,0.895996
1485545699575028,-0.206998,0.107911,0.646927,-65.0625,17.5625,-21.6875,-0.131348,-0.308105,0.997559
1485545699596040,-0.223659,0.113788,0.639587,-43.625,20.9375,-16.4375,-0.114258,-0.24707,0.972168
1485545699612551,-0.240255,0.121097,0.633329,-44.6875,23.0625,-12.875,-0.135254,-0.237305,0.916016
1485545699635067,-0.26041,0.129549,0.628348,-56.0625,23.8125,-8.5625,-0.166504,-0.234375,0.875977
1485545699656082,-0.282192,0.137037,0.625837,-62.5,22,-1.625,-0.141602,-0.254395,0.94043
1485545699672594,-0.303253,0.144474,0.628979,-58.375,19.5,15.9375,-0.12207,-0.346191,0.949707
1485545699695147,-0.321694,0.152379,0.634703,-48.1875,13.625,22.4375,-0.186523,-0.403809,0.89209
1485545699716173,-0.33476,0.158715,0.641134,-35.25,8.875,22.8125,-0.189941,-0.385742,0.885742
1485545699732674,-0.344545,0.164474,0.649806,-31,5.5625,28.375,-0.187012,-0.342773,0.907715
1485545699755189,-0.353072,0.16993,0.660549,-30.875,1.3125,32.1875,-0.215332,-0.317871,0.915039
1485545699776204,-0.36318,0.17493,0.672668,-35.375,-3.875,35.3125,-0.243652,-0.316895,0.860352
1485545699793215,-0.373866,0.176984,0.686457,-39.0625,-14.5,35.5625,-0.260254,-0.319824,0.868164
1485545699814721,-0.380841,0.176065,0.701428,-30.4375,-24.875,35,-0.270996,-0.305664,0.875977
1485545699836236,-0.385288,0.170898,0.714386,-26.875,-34.8125,24.0625,-0.29248,-0.269531,0.967285
1485545699852248,-0.393306,0.160397,0.722106,-33.125,-43.8125,4.25,-0.29541,-0.309082,0.990723
1485545699874764,-0.405171,0.147009,0.72563,-45.8125,-42.875,-8.9375,-0.217773,-0.279785,1.01807
1485545699895778,-0.421106,0.13441,0.725823,-53,-36.3125,-16.375,-0.203613,-0.354492,1.05469
1485545699912290,-0.437966,0.120038,0.725586,-54.9375,-38.625,-19.625,-0.17041,-0.408691,1.09229
1485545699942311,-0.451729,0.103763,0.724353,-43.875,-40.125,-23.5,-0.121582,-0.455566,1.1001
1485545699955819,-0.462843,0.0914993,0.727411,-30,-33.875,-6.4375,-0.0859375,-0.576172,1.06152
1485545699972332,-0.460281,0.084464,0.731685,5.75,-19.8125,3.5,-0.0410156,-0.510254,1.04736
1485545699994848,-0.451694,0.0829481,0.73484,11.75,-7.875,5.0625,-0.090332,-0.311035,1.03223
1485545700017364,-0.45215,0.0830151,0.7393,-13.9375,-3.9375,11.0625,-0.0688477,-0.296387,0.987793
1485545700038379,-0.455893,0.0839545,0.740354,-18.5,1.9375,3.9375,-0.0830078,-0.393066,1.03857
1485545700054891,-0.456789,0.0855087,0.740334,-7.875,3.4375,0.875,-0.107422,-0.403809,0.99707
1485545700075906,-0.447601,0.0898132,0.737249,17.375,8.875,-6.375,-0.191895,-0.31543,0.983398
1485545700091917,-0.447194,0.0946491,0.729187,-8.0625,12.125,-20.6875,-0.264648,-0.280273,0.955566
1485545700114933,-0.45259,0.0877451,0.716487,-24.875,-10.9375,-46.8125,-0.222656,-0.21582,0.847656
1485545700135948,-0.465988,0.0734893,0.700363,-39.625,-23.0625,-63.5,-0.182617,-0.343262,0.839355
1485545700158464,-0.474961,0.0533261,0.680566,-24.25,-30.8125,-79.0625,-0.132813,-0.428711,0.89502
1485545700174975,-0.475001,0.0328516,0.660209,-0.25,-24.75,-78.75,-0.0224609,-0.444824,0.946777
1485545700197491,-0.474037,0.0107064,0.639293,6.0625,-16.75,-75.9375,0.183105,-0.498535,0.917969
1485545700212007,-0.468552,-0.00439379,0.617408,19.625,-4.3125,-72.5625,0.0991211,-0.537598,0.94873
1485545700235018,-0.474317,-0.0166511,0.595455,-23.5625,0.875,-70.125,0.0766602,-0.37793,0.928711
1485545700257570,-0.485088,-0.0307422,0.571684,-30.1875,3.4375,-74.875,0.158203,-0.562988,1.00879
1485545700271580,-0.498024,-0.0417183,0.554721,-30.25,-0.1875,-55.6875,0.124512,-0.671875,0.979492
1485545700295097,-0.506197,-0.0460021,0.546423,-14.75,-0.875,-27.875,0.0219727,-0.655273,0.900879
1485545700317612,-0.504818,-0.0484199,0.53987,12.875,5.3125,-19,0.0820313,-0.602539,0.791992
1485545700338628,-0.489546,-0.0471439,0.535238,43.9375,15.0625,-6.9375,0.133301,-0.431641,0.788574
1485545700355138,-0.474814,-0.044496,0.531674,32.375,15.75,-3,0.108398,-0.25293,0.785156
1485545700377656,-0.464506,-0.0433624,0.527138,21.1875,12.25,-8.125,0.0898438,-0.286621,0.816406
1485545700391665,-0.463973,-0.0453681,0.520691,-7.3125,3.8125,-17.9375,0.0629883,-0.313477,0.88623
1485545700415181,-0.463023,-0.0551101,0.512227,-5.8125,-6.625,-30.0625,0.169922,-0.333496,0.898926
1485545700437197,-0.458619,-0.0651821,0.504158,1.5625,-11.125,-30.875,0.137207,-0.300293,0.915039
1485545700451707,-0.457373,-0.0789831,0.496158,-10.125,-17.1875,-32.9375,0.218262,-0.290039,0.986816
1485545700475224,-0.45769,-0.0951326,0.490821,-5.375,-23.8125,-28.1875,0.282227,-0.454102,1.0127
1485545700497239,-0.45996,-0.10977,0.488468,-12,-24.875,-19.25,0.273926,-0.404297,0.971191
1485545700511749,-0.471014,-0.119025,0.487172,-37.5625,-17.75,-12.4375,0.187012,-0.375,0.916016
1485545700534765,-0.485413,-0.123463,0.488753,-41.0625,-10.125,-0.1875,0.182129,-0.474609,0.905273
1485545700557281,-0.501465,-0.122179,0.491439,-40.0625,2.8125,9.5,0.17334,-0.555664,0.864746
1485545700578296,-0.51542,-0.115362,0.495075,-35,13,18.3125,0.131348,-0.556641,0.874512
1485545700594808,-0.530368,-0.105686,0.49693,-37,18.4375,16.25,0.0507813,-0.57373,0.826172
1485545700617324,-0.540381,-0.0962211,0.498286,-26.1875,16.375,14,0.0185547,-0.563477,0.882813
1485545700638339,-0.545745,-0.0906343,0.496644,-18.5625,12,1.9375,0.0224609,-0.478027,0.858398
1485545700654850,-0.554758,-0.0870453,0.49363,-30.75,9.625,-3.625,0.0263672,-0.4375,0.820801
1485545700677366,-0.566999,-0.0854198,0.491288,-35.8125,8,-3.1875,0.0849609,-0.500977,0.794434
1485545700698381,-0.578285,-0.0829282,0.489219,-29.875,8.8125,-1.4375,0.074707,-0.578125,0.805664
1485545700714891,-0.586229,-0.0800681,0.488463,-20,7.875,2.375,0.0766602,-0.604004,0.83252
1485545700737407,-0.592626,-0.0764732,0.488335,-17.125,7.8125,4.6875,0.0654297,-0.600098,0.854492
1485545700758422,-0.597246,-0.0730057,0.489602,-11.1875,3.75,6.5,0.0341797,-0.61084,0.860352
1485545700774933,-0.602252,-0.0712421,0.49369,-8.0625,-5.25,9.9375,0.0229492,-0.678223,0.84668
1485545700797450,-0.602706,-0.0683934,0.499676,0.5625,-2.5625,18.875,0.0761719,-0.591309,0.845703
1485545700818465,-0.605479,-0.0649006,0.504533,-6.4375,-2.0625,15.75,0.0258789,-0.578613,0.819824
1485545700834977,-0.611076,-0.0630542,0.50945,-12.0625,-4.875,13.375,0.0415039,-0.622559,0.812012
1485545700857504,-0.611785,-0.0618546,0.514963,3.625,-7.5625,13.6875,0.0371094,-0.641113,0.797363
1485545700878517,-0.606122,-0.0612783,0.521135,20.6875,-10,13.8125,0.0327148,-0.612305,0.799316
1485545700895029,-0.598841,-0.0616087,0.527147,24.4375,-11.75,12.875,0.0410156,-0.59082,0.79834
1485545700917550,-0.589956,-0.0624443,0.532985,29.25,-11.875,12,0.0546875,-0.60791,0.83252
1485545700940061,-0.580792,-0.0624443,0.539458,28.25,-11.6875,14.375,0.0395508,-0.574707,0.850586
1485545700961075,-0.571557,-0.0631311,0.545747,28.375,-13.1875,12.6875,0.0366211,-0.563965,0.861328
1485545700976576,-0.561691,-0.0641218,0.552698,28.75,-15.0625,14.0625,0.0341797,-0.544922,0.883301
1485545700991088,-0.551948,-0.0669683,0.560339,22.4375,-14.875,17.25,0.13916,-0.489258,0.985352
1485545701013604,-0.552382,-0.0621064,0.566477,3.8125,-4.9375,17,-0.0771484,-0.506348,0.709473
1485545701030114,-0.558612,-0.0590631,0.570118,-33.4375,-1.9375,12.3125,-0.0102539,-0.219727,0.788574
1485545701051159,-0.584572,-0.0527882,0.575292,-45.125,-3.875,13.25,-0.177246,-0.602539,0.17041
1485545701073676,-0.596043,-0.0541275,0.58023,-47.25,-4.25,15.3125,0.199707,-0.590332,1.24512
1485545701089686,-0.603543,-0.0612819,0.584347,-62,-6.8125,12.1875,0.400391,-0.391113,1.58984
1485545701111229,-0.626043,-0.0576462,0.588652,-59.6875,-6.25,10.1875,-0.0986328,-0.43457,0.500488
1485545701133226,-0.658088,-0.0522989,0.594174,-48.5,-8.9375,10.375,-0.213867,-0.754883,-0.027832
1485545701149738,-0.676645,-0.0559838,0.599294,-45.4375,-11.4375,9.25,0.165039,-0.793457,0.831543
1485545701171253,-0.688026,-0.0562468,0.605571,-21.125,-12.4375,11.8125,0.0380859,-0.755371,0.689941
1485545701193268,-0.69159,-0.0578203,0.611929,-1,-14.9375,11,0.0625,-0.756836,0.72998
1485545701209269,-0.6886,-0.0597784,0.618742,14.4375,-15,12.5,0.0898438,-0.710938,0.760254
1485545701230784,-0.684402,-0.0615149,0.625272,15.0625,-14.4375,12.25,0.0869141,-0.675781,0.78125
1485545701253301,-0.680845,-0.0628147,0.632293,13.3125,-14.375,14.0625,0.0830078,-0.670898,0.788574
1485545701269311,-0.675653,-0.0764243,0.646237,15.375,-40.5,18.625,0.358398,-0.688477,0.908203
1485545701290826,-0.671487,-0.0674818,0.658017,32.3125,-19.625,25.625,-0.307617,-0.666992,0.42334
1485545701313343,-0.659766,-0.0758304,0.664356,26.3125,-12.6875,13.875,0.400391,-0.560547,0.91748
1485545701329403,-0.650522,-0.0738788,0.678559,31.875,-26.75,30.25,-0.0463867,-0.59668,0.732422
1485545701353921,-0.642302,-0.0775021,0.686288,27.875,-15.0625,15.9375,0.188965,-0.620605,0.76416
1485545701373448,-0.63962,-0.0709881,0.691526,9.625,-4.5625,15.1875,-0.113281,-0.638184,0.840332
1485545701389458,-0.632275,-0.069502,0.696971,21.9375,-13.8125,9.1875,-0.0654297,-0.620605,0.850586
1485545701418475,-0.623111,-0.0764261,0.702788,23.4375,-13.125,11.375,0.30127,-0.540039,0.847656
1485545701433476,-0.615173,-0.0704171,0.705702,23.1875,-4.375,7.375,-0.160156,-0.595703,0.843262
1485545701449505,-0.608092,-0.0690237,0.705533,17.5,1.25,0.25,0.0302734,-0.538086,0.84375
1485545701471003,-0.599431,-0.070091,0.714789,22.8125,-21.8125,17.375,0.00146484,-0.530762,0.877441
1485545701493519,-0.594621,-0.0757473,0.714509,12.6875,-6.0625,-5.0625,0.192383,-0.544922,0.82666
1485545701509030,-0.595063,-0.0755497,0.717911,-0.8125,-4.5625,8.8125,0.0849609,-0.560059,0.840332
1485545701532546,-0.594116,-0.0752747,0.718631,1.9375,0.5,2.8125,0.0917969,-0.54541,0.828613
1485545701553592,-0.594004,-0.0751814,0.717227,-1.5,7.5625,0.375,0.166016,-0.537109,0.834961
1485545701569136,-0.597085,-0.0740103,0.713648,-10.0625,16.8125,-0.625,0.221191,-0.591309,0.87793
1485545701592663,-0.598296,-0.0667116,0.715018,-3.625,6.75,9.375,-0.0742188,-0.554199,0.824707
1485545701613664,-0.598069,-0.0694153,0.710266,-5.875,9.5,-9.3125,0.216309,-0.493164,0.859375
1485545701629177,-0.603448,-0.0647666,0.711628,-14.875,4.75,7.875,-0.00146484,-0.596191,0.865234
1485545701652183,-0.608968,-0.0635517,0.712585,-16.75,2.4375,4.75,0.081543,-0.569824,0.840332
1485545701673206,-0.617357,-0.0585835,0.713021,-22,4.1875,4.4375,-0.0561523,-0.625,0.831055
1485545701696228,-0.623031,-0.0573604,0.712095,-14.875,2.375,-1.75,0.0234375,-0.615234,0.819824
1485545701712234,-0.625101,-0.0576335,0.708807,-6,4.8125,-8.1875,0.0571289,-0.604492,0.821289
1485545701733249,-0.625148,-0.056334,0.705935,1.625,6.75,-5.25,0.0385742,-0.626953,0.820313
1485545701755765,-0.62108,-0.0542727,0.706705,11.0625,2.25,3.9375,0.0283203,-0.580078,0.825195
1485545701772277,-0.617069,-0.0543907,0.706972,8.0625,-2.8125,-0.625,0.0239258,-0.537598,0.838379
1485545701793292,-0.616233,-0.0579835,0.706933,0.125,-5.5,-3.6875,0.11084,-0.54834,0.835449
1485545701809293,-0.616196,-0.0595208,0.708256,-0.875,-5.625,0.5625,0.0634766,-0.567871,0.830078
1485545701832310,-0.61503,-0.0608414,0.708932,1.9375,-3.3125,0.0625,0.074707,-0.567383,0.834473
1485545701860829,-0.614133,-0.0615008,0.709545,1.75,-1.6875,1.375,0.0805664,-0.573242,0.836426
1485545701877341,-0.613571,-0.0614148,0.710531,1.5,-1.0625,2.3125,0.0693359,-0.579102,0.83252
1485545701899858,-0.613508,-0.0616134,0.71046,0.3125,-0.875,-0.0625,0.0820313,-0.566406,0.831543
1485545701920872,-0.61462,-0.0614931,0.709086,-3.9375,2.9375,-2.875,0.0698242,-0.583984,0.833008
1485545701937430,-0.615847,-0.0606836,0.70845,-3.9375,2.4375,-0.5,0.0527344,-0.580078,0.827637
1485545701959945,-0.61631,-0.0600336,0.707753,-1.625,2.5,-0.5,0.0620117,-0.582031,0.82666
1485545701980960,-0.616698,-0.0592888,0.707582,-1.375,2.5,0.9375,0.0634766,-0.583984,0.833008
1485545701997472,-0.616625,-0.0582923,0.70779,-0.3125,1.25,1.5625,0.046875,-0.581543,0.831543
1485545702020000,-0.616625,-0.0582923,0.70779,-0.25,0.75,0.9375,0.0532227,-0.580078,0.82666
1485545702041012,-0.616143,-0.0578389,0.707563,0.375,1.3125,0.5,0.0605469,-0.568848,0.826172
1485545702057524,-0.615268,-0.0572678,0.706831,1.4375,2.75,-0.5625,0.0620117,-0.569824,0.824219
1485545702080039,-0.614981,-0.0567424,0.70621,0.0625,2.1875,-0.8125,0.0551758,-0.575195,0.832031
1485545702101054,-0.615441,-0.056911,0.70607,-1.6875,0.5625,0.0625,0.0683594,-0.581543,0.828125
1485545702117565,-0.616346,-0.0569244,0.705784,-2.625,0.6875,-0.625,0.0644531,-0.591797,0.83252
1485545702140081,-0.616862,-0.0565762,0.705483,-0.3125,2,0.375,0.0717773,-0.603027,0.820801
1485545702162597,-0.615701,-0.0561225,0.706126,3.5625,0.3125,2.4375,0.0600586,-0.583496,0.827637
1485545702176598,-0.614097,-0.055359,0.706457,4.3125,0.9375,1.6875,0.0546875,-0.580078,0.829102
1485545702206128,-0.612622,-0.0545568,0.706803,3.5,1.3125,1.9375,0.0507813,-0.577637,0.838867
1485545702222640,-0.611619,-0.0536153,0.707033,2.5625,1.3125,2.0625,0.0517578,-0.57959,0.835449
1485545702236650,-0.610576,-0.0528838,0.707449,3.125,1.125,2.125,0.0532227,-0.58252,0.82373
1485545702260166,-0.608987,-0.0520894,0.707923,4.6875,0.75,2.0625,0.050293,-0.577148,0.830078
1485545702282683,-0.606763,-0.0514149,0.708356,6.3125,1,2.125,0.0541992,-0.574219,0.831543
1485545702304698,-0.604493,-0.0504387,0.708398,5.5625,1.625,1.375,0.0375977,-0.565918,0.840332
1485545702319708,-0.602775,-0.0497703,0.707666,3.625,1.625,-1.1875,0.0336914,-0.563965,0.844238
1485545702342223,-0.601322,-0.0499394,0.706562,3.375,0.625,-3.4375,0.0395508,-0.569336,0.842285
1485545702356739,-0.599144,-0.0506817,0.705422,5.625,-0.75,-4.375,0.0380859,-0.563965,0.842285
1485545702379756,-0.59669,-0.052081,0.704565,5.6875,-2.0625,-4.3125,0.0488281,-0.55957,0.851563
1485545702402271,-0.594935,-0.0535189,0.703688,3.3125,-2.875,-4.6875,0.0439453,-0.545898,0.848145
1485545702416778,-0.5938,-0.0551454,0.702827,0.625,-3.625,-5.6875,0.03125,-0.535156,0.850586
1485545702439803,-0.592537,-0.0574851,0.701088,0.9375,-3.25,-8,0.0527344,-0.530273,0.849609
1485545702462309,-0.590945,-0.059696,0.699265,1.5,-1.375,-6.875,0.0791016,-0.526855,0.861816
1485545702476818,-0.593077,-0.0607206,0.699208,-7.25,-0.375,-0.4375,0.0942383,-0.55957,0.852539
1485545702499835,-0.598528,-0.0606585,0.699674,-15.8125,0.6875,2.0625,0.0844727,-0.560547,0.828613
1485545702522351,-0.605197,-0.0603988,0.700424,-16.4375,-0.375,1.9375,0.0634766,-0.601563,0.810547
1485545702536881,-0.607567,-0.0608407,0.701588,-3.875,-3,1.75,0.0600586,-0.614746,0.80957
1485545702559910,-0.605562,-0.0615631,0.70192,5.625,-2.5625,-0.1875,0.0615234,-0.57666,0.835449
1485545702582423,-0.604721,-0.0619501,0.701656,0.9375,-0.625,-1.375,0.0571289,-0.556641,0.844727
1485545702596938,-0.606023,-0.0616209,0.701192,-5.375,0.875,-0.8125,0.0541992,-0.5625,0.846191
1485545702619949,-0.608165,-0.0611801,0.701103,-6.125,0.8125,-0.125,0.0537109,-0.577637,0.831543
1485545702642471,-0.60987,-0.0614567,0.700898,-4.125,0.1875,-0.75,0.0717773,-0.585938,0.818359
1485545702656978,-0.610796,-0.0618402,0.700739,-1.25,-0.0625,-0.4375,0.0732422,-0.601563,0.821289
1485545702679982,-0.610387,-0.0620554,0.701034,2,-0.4375,0.4375,0.0717773,-0.59375,0.82959
1485545702702511,-0.609469,-0.0619915,0.701424,2.9375,-0.4375,1.125,0.0649414,-0.583984,0.831543
1485545702723656,-0.608374,-0.0619395,0.701516,2,-0.25,0.375,0.0595703,-0.564941,0.84082
1485545702739656,-0.608246,-0.0619785,0.701504,0.9375,0.0625,-0.3125,0.0600586,-0.560059,0.834473
1485545702762671,-0.607304,-0.0620636,0.701386,1.5,0,-0.5,0.0649414,-0.562012,0.830078
1485545702783708,-0.60621,-0.0620937,0.701241,2.75,0.1875,-0.3125,0.0620117,-0.565918,0.832031
1485545702799698,-0.605043,-0.0618378,0.701273,2.625,0.375,0.3125,0.0629883,-0.570801,0.841309
1485545702822259,-0.604915,-0.0618768,0.701261,-0.125,0.5625,-0.125,0.0654297,-0.571289,0.84375
1485545702843267,-0.604915,-0.0618768,0.701261,-0.8125,0.3125,-0.9375,0.065918,-0.572266,0.83252
1485545702859278,-0.604495,-0.0622077,0.701183,1.375,-0.25,-0.625,0.0668945,-0.573242,0.831543
1485545702882289,-0.603336,-0.062272,0.701445,2.5625,-0.5625,0.5,0.0644531,-0.5625,0.834961
1485545702903318,-0.603209,-0.0623111,0.701433,0.25,-0.9375,0,0.0556641,-0.55957,0.844727
1485545702919963,-0.603804,-0.0625677,0.701186,-2.5625,-0.6875,-1.1875,0.059082,-0.570801,0.841797
1485545702941977,-0.604146,-0.0630659,0.700436,-1.8125,0,-2.1875,0.0649414,-0.568359,0.837891
1485545702962977,-0.604094,-0.0635542,0.699769,-0.5625,0.1875,-2.25,0.0698242,-0.564941,0.831055
1485545702979989,-0.604121,-0.0635702,0.699799,-0.75,-0.1875,-0.5625,0.0668945,-0.569336,0.837402
1485545703002533,-0.604869,-0.0635589,0.700311,-1.75,-0.4375,1.125,0.065918,-0.578125,0.833496
1485545703023561,-0.605669,-0.0633824,0.700759,-1.75,-0.125,1.8125,0.0698242,-0.586426,0.830078
1485545703039561,-0.605439,-0.0633944,0.701004,0.5,0.8125,1.3125,0.0874023,-0.579102,0.839355
1485545703062576,-0.606462,-0.0642191,0.70211,2.75,-1.75,1.875,0.0927734,-0.637695,0.783691
1485545703083603,-0.604403,-0.0584235,0.701974,7.25,4.875,2.9375,-0.103516,-0.493164,0.680664
1485545703099603,-0.603546,-0.0522206,0.702715,8.5625,1.8125,3.375,-0.168457,-0.498535,0.56543
1485545703122690,-0.59974,-0.0554964,0.703633,7.3125,-1.0625,2.8125,0.205566,-0.584473,0.948242
1485545703144705,-0.59899,-0.054943,0.704576,3.3125,1.1875,4.1875,0.0844727,-0.633301,0.900879
1485545703159710,-0.595887,-0.0497936,0.705908,12.8125,1.25,5,-0.114746,-0.467285,0.592285
1485545703181726,-0.590946,-0.0558054,0.706841,7.6875,-0.5625,3.4375,0.335449,-0.662109,1.15918
1485545703204746,-0.589772,-0.0486643,0.707972,10.4375,1.8125,4.4375,-0.196777,-0.504883,0.57373
1485545703219315,-0.582783,-0.0529234,0.708609,12.5625,-0.6875,2.4375,0.244629,-0.555664,1.03467
1485545703242343,-0.581167,-0.0489483,0.708782,6.9375,2,1.6875,-0.0756836,-0.543457,0.766602
1485545703264364,-0.576825,-0.0478904,0.70857,9.5,0.6875,-0.25,0.00683594,-0.45752,0.780762
1485545703279357,-0.576593,-0.0507483,0.707921,-2.875,0.6875,-1.5,0.171875,-0.624512,1.04736
1485545703302401,-0.577151,-0.0463444,0.707316,0.375,0.6875,-1.6875,-0.145508,-0.432617,0.61377
1485545703324905,-0.577431,-0.0532414,0.706217,-7.5625,-1.1875,-4.1875,0.302246,-0.650391,1.16357
1485545703338915,-0.578832,-0.0488437,0.704666,-2.4375,0.625,-5.0625,-0.175293,-0.461914,0.662109
1485545703361931,-0.580439,-0.0505614,0.703783,0.0625,-6.0625,-7.4375,-0.00488281,-0.61084,0.808594
1485545703384948,-0.580845,-0.0522395,0.703138,-0.75,-2.1875,-3.625,0.0654297,-0.562012,0.844238
1485545703398957,-0.58154,-0.053233,0.703536,-1.5625,-1.375,0.6875,0.0834961,-0.560059,0.842285
1485545703422502,-0.582026,-0.053226,0.704257,-1.875,-0.3125,2.25,0.0673828,-0.550781,0.842285
1485545703444518,-0.582115,-0.0529658,0.7046,-0.375,0.375,1.25,0.0561523,-0.55127,0.84375
1485545703459528,-0.581209,-0.0528707,0.704177,1.375,1,-0.5625,0.0561523,-0.54248,0.855469
1485545703482557,-0.581033,-0.0528,0.704122,-0.25,0.625,-0.9375,0.0571289,-0.541504,0.857422
1485545703505088,-0.581791,-0.0529967,0.70404,-2.8125,-0.1875,-0.75,0.0541992,-0.545898,0.852539
1485545703519102,-0.582645,-0.0534942,0.704029,-2.6875,-0.875,-0.5625,0.0566406,-0.556641,0.844727
1485545703542612,-0.583309,-0.0542277,0.703934,-1.1875,-1.1875,-1,0.065918,-0.564453,0.839355
1485545703565128,-0.583567,-0.0552595,0.703899,0.25,-1.1875,-1.3125,0.0727539,-0.567871,0.833496
1485545703579142,-0.583006,-0.0560947,0.703525,2.375,-0.6875,-1.3125,0.0732422,-0.566406,0.83252
1485545703602655,-0.581297,-0.0566439,0.703334,5.0625,0.0625,-1,0.0722656,-0.551758,0.838379
1485545703625159,-0.578974,-0.0567278,0.703025,5.75,0.6875,-0.4375,0.0688477,-0.541504,0.848145
1485545703645686,-0.576996,-0.0565512,0.702844,4.5625,1,-0.125,0.0595703,-0.537598,0.853027
1485545703662186,-0.575878,-0.0562416,0.702458,2.25,1.0625,-0.125,0.0571289,-0.540039,0.855957
1485545703684718,-0.575176,-0.0558774,0.702255,1.3125,0.9375,-0.0625,0.0541992,-0.541016,0.853027
1485545703705729,-0.574433,-0.0557268,0.702233,1.375,0.375,-0.125,0.0532227,-0.54248,0.848633
1485545703722239,-0.574093,-0.0559064,0.702124,1.125,-0.0625,-0.4375,0.0585938,-0.546387,0.84668
1485545703744755,-0.5736,-0.0561103,0.701973,1,-0.1875,-0.375,0.0610352,-0.545898,0.854492
1485545703765768,-0.573119,-0.0562828,0.701957,1.0625,-0.125,-0.25,0.0610352,-0.546387,0.847168
1485545703782281,-0.572639,-0.0564554,0.701942,1.0625,0.125,-0.125,0.0620117,-0.54248,0.853027
1485545703804796,-0.572639,-0.0564554,0.701942,0.75,0.1875,0.1875,0.0639648,-0.541504,0.853027
1485545703825812,-0.572538,-0.0565098,0.70196,0.8125,0.375,0.5625,0.065918,-0.539063,0.852051
1485545703842323,-0.572537,-0.0564323,0.702201,0.3125,0.0625,1.0625,0.0620117,-0.54834,0.849609
1485545703864839,-0.572258,-0.0562607,0.702646,0.75,-0.125,1.1875,0.0571289,-0.552734,0.852539
1485545703885854,-0.571777,-0.056356,0.70287,2,-0.3125,0.75,0.0664063,-0.55957,0.850098
1485545703902365,-0.570842,-0.0566392,0.70311,3.5625,-0.0625,0.625,0.0698242,-0.556641,0.845703
1485545703924882,-0.569079,-0.0565978,0.703137,5.3125,0.8125,0.5625,0.0712891,-0.547363,0.850098
1485545703945896,-0.566755,-0.0562788,0.702855,5.875,1.3125,-0.0625,0.0576172,-0.535645,0.858398
1485545703962408,-0.564523,-0.0558549,0.702439,5.6875,0.9375,-1,0.0483398,-0.533203,0.861816
1485545703984924,-0.562226,-0.0557068,0.701933,5.9375,-0.1875,-1.375,0.0356445,-0.531738,0.860352
1485545704005938,-0.559913,-0.0561393,0.701501,5.625,-1.1875,-2.1875,0.0444336,-0.530762,0.870117
1485545704022520,-0.558137,-0.0570678,0.700849,4.3125,-1.8125,-3.3125,0.0493164,-0.528809,0.863281
1485545704045035,-0.556408,-0.0584571,0.7001,3.5,-2.125,-3.875,0.0581055,-0.51709,0.862793
1485545704066050,-0.554491,-0.0597288,0.699403,3.5,-2.375,-3.625,0.0566406,-0.506836,0.867188
1485545704082563,-0.553281,-0.0605026,0.699212,2.6875,-2.375,-2.25,0.0498047,-0.53125,0.88623
1485545704105082,-0.552443,-0.0618215,0.6984,-0.5,-0.6875,-3.0625,0.0869141,-0.490723,0.867188
1485545704127593,-0.554004,-0.0626831,0.697645,-6.3125,0.625,-2,0.0883789,-0.512207,0.869141
1485545704142103,-0.557178,-0.063103,0.696994,-9.3125,1,-1.375,0.0825195,-0.531738,0.858887
1485545704165123,-0.560592,-0.0632496,0.696957,-8.1875,0.625,-0.0625,0.0786133,-0.554688,0.844727
1485545704187635,-0.562807,-0.0629524,0.697174,-4.875,0.5,1,0.0634766,-0.55957,0.844727
1485545704202635,-0.563892,-0.0624173,0.697699,-2.125,0.3125,1.625,0.0576172,-0.553223,0.847656
1485545704224652,-0.564208,-0.0620668,0.698036,-0.25,-0.1875,1.125,0.0546875,-0.547363,0.850098
1485545704247167,-0.563769,-0.0618708,0.698321,1.5,-0.75,0.6875,0.0512695,-0.543945,0.855469
1485545704261688,-0.562835,-0.0621531,0.698559,2.1875,-1.3125,0.0625,0.0620117,-0.533203,0.856934
1485545704284693,-0.561812,-0.0626161,0.698694,1.875,-1.125,-0.5,0.0625,-0.527344,0.867188
1485545704307210,-0.561812,-0.0626161,0.698694,0.4375,-0.375,-0.8125,0.0751953,-0.525879,0.859863
1485545704321730,-0.561686,-0.0626553,0.698682,-1,0.625,-0.375,0.0766602,-0.534668,0.864746
1485545704344746,-0.561925,-0.0626075,0.69857,-0.9375,1.0625,0.3125,0.0737305,-0.535156,0.858887
1485545704367262,-0.561925,-0.0626075,0.69857,-1,0.8125,0.5625,0.0629883,-0.537109,0.85498
1485545704381772,-0.561876,-0.0624968,0.698527,-0.625,0.375,0.0625,0.0571289,-0.543945,0.850098
1485545704404779,-0.561799,-0.0626467,0.698558,1.125,-0.25,-0.4375,0.0610352,-0.546387,0.850098
1485545704427325,-0.560678,-0.0629644,0.698367,2.875,-0.375,-0.75,0.0664063,-0.538086,0.86084
1485545704441815,-0.559169,-0.0632734,0.698263,3.625,-0.375,-0.4375,0.0678711,-0.526367,0.861328
1485545704464821,-0.55795,-0.0632935,0.698227,2.25,0.0625,-0.125,0.0678711,-0.52002,0.864258
1485545704487346,-0.557849,-0.0633477,0.698246,0.1875,0.1875,0.125,0.0683594,-0.518066,0.862793
1485545704501857,-0.557901,-0.0631827,0.698185,-1.1875,0.3125,0.3125,0.0634766,-0.521973,0.861328
1485545704524879,-0.558217,-0.0629089,0.698282,-1.4375,0.375,0.375,0.0620117,-0.531738,0.862305
1485545704547388,-0.558758,-0.0628174,0.698476,-1.3125,0,0.5,0.0625,-0.536621,0.858398
1485545704561900,-0.559033,-0.0628348,0.698511,-1.125,-0.375,0.25,0.0595703,-0.534668,0.86377
1485545704584916,-0.559395,-0.063104,0.698497,-1.25,-0.4375,-0.3125,0.0712891,-0.534668,0.859375
1485545704607432,-0.559421,-0.0631191,0.698527,-0.5625,-0.25,-0.3125,0.0708008,-0.535156,0.856445
1485545704628446,-0.559344,-0.0632691,0.698558,0.0625,-0.0625,-0.0625,0.0717773,-0.533203,0.856445
1485545704644958,-0.559344,-0.0632691,0.698558,-0.125,0.1875,0.1875,0.0673828,-0.53418,0.855957
1485545704667473,-0.559344,-0.0632691,0.698558,-0.625,0.125,0.3125,0.0634766,-0.530762,0.855469
1485545704688488,-0.559344,-0.0632691,0.698558,-0.875,0.125,0.3125,0.0620117,-0.532715,0.857422
1485545704705003,-0.559294,-0.0631583,0.698515,-0.875,0.125,0.25,0.0576172,-0.534668,0.860352
1485545704727516,-0.559294,-0.0631583,0.698515,-0.5625,-0.125,0,0.0600586,-0.538574,0.856445
1485545704748530,-0.559294,-0.0631583,0.698515,-0.25,-0.375,-0.3125,0.0678711,-0.535156,0.855957
1485545704765042,-0.559344,-0.0632691,0.698558,0.625,-0.375,-0.1875,0.0688477,-0.537598,0.856445
1485545704787058,-0.558738,-0.0634801,0.69853,1.1875,-0.3125,-0.25,0.0703125,-0.53418,0.859863
1485545704808573,-0.55821,-0.0635412,0.698472,1.375,0.125,-0.125,0.0668945,-0.531738,0.858398
1485545704825107,-0.55821,-0.0635412,0.698472,0.875,0.125,-0.0625,0.0712891,-0.533203,0.85791
1485545704847624,-0.558084,-0.0635805,0.69846,0.6875,0.125,-0.0625,0.0629883,-0.523438,0.86084
1485545704868627,-0.55811,-0.0635955,0.69849,0.5,0,0.0625,0.0649414,-0.529297,0.860352
1485545704884639,-0.55811,-0.0635955,0.69849,0.3125,-0.0625,0.0625,0.0600586,-0.52832,0.863281
1485545704907660,-0.557984,-0.0636347,0.698479,0.1875,-0.25,-0.0625,0.065918,-0.532715,0.86377
1485545704928670,-0.557984,-0.0636347,0.698479,-0.4375,-0.3125,0.125,0.0644531,-0.535156,0.861328
1485545704944682,-0.557984,-0.0636347,0.698479,-0.375,-0.25,-0.125,0.0703125,-0.531738,0.856445
1485545704967199,-0.557984,-0.0636347,0.698479,-0.4375,-0.1875,-0.0625,0.0664063,-0.538086,0.858398
1485545704988260,-0.557984,-0.0636347,0.698479,-0.125,-0.25,0.5625,0.0703125,-0.533203,0.856934
1485545705004754,-0.557781,-0.0637482,0.698739,0.4375,-0.125,1,0.0717773,-0.532227,0.85498
1485545705027283,-0.557517,-0.0635492,0.69932,0.6875,-0.0625,1.625,0.0717773,-0.535156,0.858398
1485545705049804,-0.557154,-0.0634047,0.699919,1.8125,0.25,2.0625,0.0737305,-0.541504,0.855957
1485545705064812,-0.556102,-0.0629444,0.700439,2.75,0.4375,2.1875,0.0673828,-0.528809,0.862305
1485545705087322,-0.555314,-0.0623757,0.701118,2.125,0.375,2.1875,0.0620117,-0.533203,0.863281
1485545705109844,-0.554388,-0.0618772,0.701651,2.75,0.3125,2.125,0.0634766,-0.530762,0.86084
1485545705124838,-0.5532,-0.0612571,0.702526,4.1875,0.0625,2.75,0.0576172,-0.539551,0.855469
1485545705147354,-0.551346,-0.0607701,0.703199,5.5625,0.375,2.6875,0.0654297,-0.530273,0.858398
1485545705170370,-0.548943,-0.0602509,0.703806,6.3125,0.8125,2.625,0.0703125,-0.519043,0.863281
1485545705184380,-0.546293,-0.0593811,0.704552,6.25,0.8125,3.1875,0.0581055,-0.508301,0.871582
1485545705207397,-0.544446,-0.0585413,0.70515,4.0625,0.6875,2.25,0.0507813,-0.504883,0.871582
1485545705229912,-0.54365,-0.0578061,0.705359,1.0625,0.75,1.3125,0.0449219,-0.508789,0.875
1485545705244422,-0.543831,-0.0572436,0.705227,-1.1875,0.6875,0.1875,0.0478516,-0.515625,0.875488
1485545705267438,-0.544234,-0.0570923,0.704686,-1.9375,0.625,-1.25,0.0527344,-0.519043,0.870605
1485545705289954,-0.544889,-0.0568619,0.704167,-2.625,0,-1.8125,0.0332031,-0.51709,0.874023
1485545705304465,-0.545927,-0.0574944,0.703018,-4.0625,-1.125,-4.6875,0.0341797,-0.513672,0.867676
1485545705327482,-0.547198,-0.0590167,0.701201,-5.0625,-1.5625,-6.875,0.0546875,-0.515137,0.870117
1485545705349997,-0.548647,-0.0610674,0.700244,-4,-2.25,-4.75,0.0820313,-0.530273,0.85791
1485545705364033,-0.549613,-0.0620104,0.700901,-2.25,-2.1875,0.9375,0.0825195,-0.537598,0.863281
1485545705387563,-0.5506,-0.062059,0.702008,-2.75,-1.125,3.0625,0.0732422,-0.523926,0.859375
1485545705410109,-0.552357,-0.0615185,0.702612,-5.125,0,2.0625,0.0581055,-0.527344,0.861816
1485545705424136,-0.553236,-0.061398,0.702433,-2.6875,0.5,-0.1875,0.0610352,-0.523438,0.852051
1485545705447185,-0.553436,-0.0617154,0.702016,-1.25,0.375,-1.375,0.0683594,-0.527832,0.864746
1485545705469686,-0.554023,-0.0619654,0.701752,-1.5,0,-1,0.0644531,-0.535156,0.861328
1485545705484206,-0.554023,-0.0619654,0.701752,0.1875,-0.4375,0,0.0629883,-0.542969,0.858398
1485545705507212,-0.553558,-0.062108,0.701872,1.375,-0.5625,0.1875,0.065918,-0.53125,0.861816
1485545705529738,-0.553558,-0.062108,0.701872,0.375,-0.375,0,0.0654297,-0.528809,0.858887
1485545705550753,-0.553607,-0.0622187,0.701914,0.375,-0.125,0.125,0.0673828,-0.527832,0.859375
1485545705567255,-0.552868,-0.0620685,0.701896,1.3125,0.0625,0.1875,0.0595703,-0.526855,0.867676
1485545705589781,-0.552819,-0.0619577,0.701854,0.625,0.25,-0.5,0.0546875,-0.524902,0.86377
1485545705610795,-0.552819,-0.0619577,0.701854,-1,0.0625,-0.5625,0.0566406,-0.52002,0.866699
1485545705627306,-0.55372,-0.0621342,0.702031,-2.5625,-0.375,0.0625,0.0654297,-0.537598,0.861816
1485545705649823,-0.554171,-0.0622225,0.70212,-1.25,-0.4375,0.25,0.0620117,-0.53125,0.855957
1485545705670837,-0.554297,-0.062183,0.702131,0.6875,-0.6875,0.125,0.0698242,-0.535156,0.856934
1485545705687349,-0.55358,-0.0624046,0.702228,1.4375,-0.6875,-0.1875,0.0639648,-0.523438,0.862793
1485545705709866,-0.553503,-0.0625548,0.702259,0.4375,-0.3125,-0.6875,0.0717773,-0.524414,0.869141
1485545705730880,-0.553403,-0.0626093,0.702278,-0.375,0.0625,-0.5,0.0688477,-0.52002,0.866699
1485545705747392,-0.553403,-0.0626093,0.702278,-0.75,0.25,-0.0625,0.0693359,-0.523926,0.858887
1485545705769908,-0.553403,-0.0626093,0.702278,-0.5,0.125,0.25,0.0610352,-0.526855,0.859863
1485545705790922,-0.553354,-0.0624985,0.702236,-0.5625,-0.125,0.375,0.0595703,-0.52832,0.862305
1485545705807433,-0.553354,-0.0624985,0.702236,-0.75,-0.375,-0.1875,0.0585938,-0.529297,0.860352
1485545705829952,-0.553354,-0.0624985,0.702236,-0.625,-0.5,-0.4375,0.059082,-0.52832,0.860352
1485545705850964,-0.553354,-0.0624985,0.702236,-0.4375,-0.5,-0.3125,0.0639648,-0.530762,0.861328
1485545705867476,-0.553228,-0.0625379,0.702224,-0.25,-0.4375,-0.125,0.0708008,-0.527344,0.864258
1485545705889991,-0.553277,-0.0626487,0.702267,0,-0.5,0.125,0.0698242,-0.530273,0.862305
1485545705911006,-0.553277,-0.0626487,0.702267,-0.125,-0.1875,0.1875,0.0654297,-0.530273,0.866699
1485545705927508,-0.553277,-0.0626487,0.702267,-0.8125,0,-0.25,0.065918,-0.529297,0.862793
1485545705957529,-0.553516,-0.0625999,0.702154,-1.125,0.3125,0,0.065918,-0.529785,0.864746
1485545705971038,-0.553516,-0.0625999,0.702154,-0.9375,0.1875,0.0625,0.0625,-0.530762,0.860352
1485545705987551,-0.553516,-0.0625999,0.702154,-0.625,-0.0625,0.25,0.0620117,-0.527832,0.858398
1485545706010066,-0.553516,-0.0625999,0.702154,-0.1875,-0.3125,-0.0625,0.0615234,-0.52832,0.861816
1485545706032582,-0.55339,-0.0626393,0.702142,-0.5625,-0.4375,-0.125,0.0620117,-0.525391,0.864258
1485545706047592,-0.553841,-0.0627276,0.702231,-1.3125,-0.5,-0.125,0.0644531,-0.528809,0.860352
1485545706070108,-0.554166,-0.0628552,0.702308,-1.4375,-0.3125,0.1875,0.065918,-0.531738,0.864746
1485545706092624,-0.554616,-0.0629434,0.702397,-1.1875,-0.1875,0,0.0634766,-0.530762,0.85498
1485545706107635,-0.555144,-0.0628813,0.702455,-1.375,-0.125,0.1875,0.0634766,-0.532227,0.858887
1485545706130151,-0.555343,-0.0630483,0.702522,-1.0625,-0.1875,0.1875,0.0673828,-0.529785,0.868652
1485545706152166,-0.555582,-0.0629242,0.70265,-1.1875,-0.125,0.4375,0.0620117,-0.527832,0.864258
1485545706166677,-0.555532,-0.0628135,0.702608,-1,-0.1875,0.375,0.0556641,-0.529297,0.859375
1485545706189694,-0.555907,-0.0630517,0.702728,-1.375,-0.25,0,0.0673828,-0.532715,0.861328
1485545706212210,-0.556583,-0.0633973,0.702673,-1.5625,0,-0.4375,0.0751953,-0.538574,0.857422
1485545706234725,-0.556972,-0.0634049,0.702584,-1.1875,0.1875,-0.125,0.0698242,-0.538574,0.861816
1485545706249736,-0.557021,-0.0635156,0.702627,-0.4375,0.125,0.5625,0.0678711,-0.532227,0.856934
1485545706272252,-0.557021,-0.0635156,0.702627,-0.5,-0.0625,0.375,0.0629883,-0.533691,0.859863
1485545706286762,-0.556972,-0.0634049,0.702584,-0.8125,-0.3125,0.0625,0.0541992,-0.530273,0.861816
1485545706309778,-0.556972,-0.0634049,0.702584,-0.625,-0.3125,-0.1875,0.0610352,-0.537598,0.85791
1485545706332294,-0.556972,-0.0634049,0.702584,-0.25,-0.25,-0.3125,0.065918,-0.537598,0.863281
1485545706346805,-0.556972,-0.0634049,0.702584,0.3125,0,-0.4375,0.0717773,-0.532715,0.857422
1485545706369835,-0.557021,-0.0635156,0.702627,0.8125,0.3125,-0.0625,0.0703125,-0.530273,0.857422
1485545706392346,-0.556895,-0.063555,0.702615,0.6875,0.375,0.3125,0.0708008,-0.531738,0.858398
1485545706406856,-0.556895,-0.063555,0.702615,0.375,0.5,0.3125,0.0615234,-0.534668,0.86084
1485545706429873,-0.556846,-0.0634443,0.702573,0.3125,0.3125,0.1875,0.0610352,-0.528809,0.86377
1485545706452394,-0.556846,-0.0634443,0.702573,0.5,0.125,0.1875,0.0551758,-0.529785,0.859863
1485545706466898,-0.556846,-0.0634443,0.702573,0.0625,-0.0625,-0.1875,0.0620117,-0.524414,0.862793
1485545706489915,-0.55672,-0.0634838,0.702561,-0.25,-0.0625,-0.0625,0.0717773,-0.529297,0.85791
1485545706512431,-0.55672,-0.0634838,0.702561,-0.1875,0.1875,0.1875,0.0693359,-0.533203,0.86084
1485545706533435,-0.55672,-0.0634838,0.702561,0.125,0.0625,0.375,0.0629883,-0.53418,0.855469
1485545706549947,-0.556745,-0.0634988,0.702591,-0.25,-0.125,0.25,0.0585938,-0.532227,0.866211
1485545706572462,-0.556745,-0.0634988,0.702591,-0.875,-0.1875,-0.0625,0.0600586,-0.530273,0.855469
1485545706593477,-0.556745,-0.0634988,0.702591,-0.625,-0.0625,0,0.0664063,-0.529297,0.855469
1485545706609989,-0.556745,-0.0634988,0.702591,0.3125,0.0625,-0.125,0.0717773,-0.532715,0.853027
1485545706632504,-0.556218,-0.0635609,0.702533,1.25,0.1875,0,0.0698242,-0.530762,0.857422
1485545706653519,-0.555653,-0.0634821,0.702567,1.4375,0.25,0.1875,0.065918,-0.533691,0.86084
1485545706670031,-0.555653,-0.0634821,0.702567,0.625,0.375,-0.1875,0.0668945,-0.532715,0.86377
1485545706692547,-0.555703,-0.0635929,0.70261,0.125,0.3125,-0.1875,0.0698242,-0.528809,0.858398
1485545706713562,-0.555703,-0.0635929,0.70261,0.5,0.125,0.0625,0.0644531,-0.53125,0.856445
1485545706730074,-0.555252,-0.0635047,0.702521,1.0625,0,0,0.0625,-0.533691,0.862305
1485545706752589,-0.554485,-0.0636156,0.702575,1.75,-0.1875,-0.0625,0.0634766,-0.527832,0.862793
1485545706773617,-0.553695,-0.0636308,0.702617,2.3125,-0.25,-0.125,0.0620117,-0.529297,0.856934
1485545706790131,-0.552767,-0.0637155,0.702513,2.0625,-0.125,-0.25,0.0668945,-0.523438,0.86084
1485545706812131,-0.552114,-0.0638171,0.702443,1.125,-0.0625,-0.25,0.0639648,-0.517578,0.867188
1485545706833662,-0.551964,-0.0637607,0.70242,0.375,0.0625,0.1875,0.0620117,-0.521973,0.864746
1485545706849659,-0.551964,-0.0637607,0.70242,-0.3125,0.125,0.125,0.0678711,-0.517578,0.86377
1485545706872206,-0.551838,-0.0638002,0.702408,-0.75,0.125,0.3125,0.0625,-0.526367,0.861816
1485545706893198,-0.551838,-0.0638002,0.702408,-0.6875,0,0.375,0.0625,-0.528809,0.867188
1485545706909701,-0.551838,-0.0638002,0.702408,-0.3125,-0.1875,0.3125,0.0639648,-0.536133,0.864258
1485545706932217,-0.551838,-0.0638002,0.702408,0.4375,-0.3125,0.1875,0.0634766,-0.528809,0.861328
1485545706954743,-0.551838,-0.0638002,0.702408,0.75,-0.3125,0,0.0605469,-0.529785,0.860352
1485545706969753,-0.551838,-0.0638002,0.702408,0.875,-0.25,0,0.0683594,-0.521973,0.865234
1485545706992269,-0.551838,-0.0638002,0.702408,0.375,-0.1875,-0.0625,0.0703125,-0.524414,0.867188
1485545707014775,-0.551713,-0.0638397,0.702397,0.25,0,0.25,0.0649414,-0.522949,0.864746
1485545707029844,-0.551713,-0.0638397,0.702397,-0.5,0.125,0.5,0.0610352,-0.528809,0.861328
1485545707052357,-0.551713,-0.0638397,0.702397,-0.625,0.125,0.3125,0.0634766,-0.523438,0.856934
1485545707074873,-0.551838,-0.0638002,0.702408,-0.375,0.1875,-0.25,0.0654297,-0.541016,0.854004
1485545707089383,-0.551811,-0.0641362,0.70224,1.4375,0.0625,-0.6875,0.0751953,-0.548828,0.854492
1485545707112399,-0.550243,-0.0642923,0.702202,5.5625,-0.125,-0.1875,0.0683594,-0.543457,0.852539
1485545707134920,-0.547324,-0.064385,0.702245,8.5,0.1875,0,0.0703125,-0.52832,0.861816
1485545707149425,-0.543957,-0.0643895,0.702202,9.0625,0.625,0.125,0.074707,-0.513672,0.866699
1485545707172450,-0.541594,-0.0643881,0.701733,7.0625,1.5625,-0.6875,0.078125,-0.528809,0.861328
1485545707202463,-0.538723,-0.0641336,0.701021,9.25,2,-1,0.0751953,-0.533203,0.864746
1485545707209467,-0.534618,-0.0639575,0.700013,12.4375,2.25,-2.0625,0.0698242,-0.522461,0.858398
1485545707232474,-0.530066,-0.0640369,0.698786,13.875,2.5625,-2.9375,0.078125,-0.521973,0.857422
1485545707254989,-0.52475,-0.0639741,0.69739,16.625,2.9375,-2.875,0.0771484,-0.529297,0.863281
1485545707268999,-0.518112,-0.0638113,0.696232,19.625,3,-2.25,0.078125,-0.509277,0.874023
1485545707292515,-0.51104,-0.0634815,0.695251,20.5625,3.6875,-1.375,0.0854492,-0.501465,0.877441
1485545707315031,-0.504475,-0.0620356,0.695234,19.3125,4.75,2.8125,0.0844727,-0.497559,0.882324
1485545707336046,-0.497212,-0.059849,0.696029,22.1875,5.1875,5.3125,0.074707,-0.493652,0.873047
1485545707352558,-0.489059,-0.0576577,0.697153,24.9375,4.0625,5.5,0.0541992,-0.491699,0.887695
1485545707375074,-0.47947,-0.0556065,0.69816,28.1875,2.625,4.6875,0.0415039,-0.476074,0.896973
1485545707396088,-0.468974,-0.0553347,0.698215,29,0.3125,0.375,0.0493164,-0.4375,0.898438
1485545707412600,-0.460439,-0.0558433,0.698835,20.375,-1.875,1.4375,0.0620117,-0.402832,0.941895
1485545707435116,-0.455898,-0.0565505,0.698758,8.875,-2.125,-1.3125,0.0537109,-0.404785,0.956543
1485545707456131,-0.456651,-0.0578777,0.698758,-3.25,-3.6875,-1.5625,0.0541992,-0.444824,0.937988
1485545707472142,-0.458604,-0.059618,0.697405,-3.375,-2.75,-5.75,0.0634766,-0.484375,0.902344
1485545707494658,-0.459778,-0.0612871,0.694099,-2.5,1,-10.5,0.0766602,-0.460938,0.89209
1485545707516173,-0.460694,-0.0639931,0.688875,-5.375,2.6875,-14.875,0.115234,-0.42627,0.914063
1485545707532203,-0.460703,-0.0682606,0.683558,-9.4375,1.625,-15.6875,0.163086,-0.34082,0.945801
1485545707554718,-0.468557,-0.0732122,0.679758,-29.125,-0.5625,-12.1875,0.191406,-0.373535,0.929199
1485545707575746,-0.479691,-0.0773036,0.677249,-33.75,-0.9375,-8.5,0.178223,-0.452148,0.90625
1485545707592260,-0.489807,-0.0812868,0.674495,-29.9375,-0.125,-8.75,0.185059,-0.471191,0.889648
1485545707614775,-0.498228,-0.0844635,0.67217,-25.5625,0.5,-7.375,0.172363,-0.466797,0.88623
1485545707635775,-0.505323,-0.0864999,0.669938,-22.875,1.875,-5.9375,0.154297,-0.461426,0.896973
1485545707652287,-0.509878,-0.0882917,0.668368,-16,2.6875,-3.5,0.161621,-0.430176,0.839355
1485545707674803,-0.517379,-0.0898278,0.66661,-23.4375,3.25,-3.625,0.165527,-0.46582,0.860352
1485545707695818,-0.52282,-0.0909241,0.664592,-16.625,4.6875,-3.8125,0.165039,-0.462891,0.813477
1485545707712329,-0.522949,-0.0916393,0.662685,-3.625,7.6875,-1.625,0.198242,-0.427734,0.822266
1485545707734845,-0.52253,-0.0917632,0.661207,-3.875,9.125,0.75,0.202637,-0.384766,0.805664
1485545707755877,-0.528174,-0.0893125,0.660202,-21.4375,12.25,4.5,0.168945,-0.400391,0.824707
1485545707772384,-0.538113,-0.0871659,0.658425,-32.25,13.0625,1.8125,0.169922,-0.466309,0.873535
1485545707794898,-0.549798,-0.0821409,0.657225,-33.8125,17.875,6.9375,0.147461,-0.524902,0.861328
1485545707815912,-0.561794,-0.0757849,0.655631,-35.0625,21.125,7.625,0.131348,-0.525879,0.84082
1485545707831975,-0.573784,-0.0696905,0.653119,-34.1875,21.8125,5.5625,0.124512,-0.54248,0.825684
1485545707855010,-0.582322,-0.063144,0.649698,-24,23.875,3.5,0.105957,-0.552734,0.811035
1485545707876023,-0.58687,-0.0562632,0.645079,-14.125,25.125,1.0625,0.0795898,-0.525391,0.799316
1485545707891562,-0.588167,-0.050408,0.639268,-7.375,23.3125,-4.3125,0.050293,-0.484375,0.79541
1485545707915078,-0.592342,-0.0438557,0.63452,-14.5,23.625,-0.8125,0.0454102,-0.505371,0.791504
1485545707937600,-0.59985,-0.0364555,0.629228,-21.8125,26.1875,-0.375,0.0400391,-0.507813,0.740723
1485545707951594,-0.608179,-0.0295193,0.622496,-23.5625,28.1875,-4.0625,0.0400391,-0.523438,0.720215
1485545707975121,-0.627626,-0.0286127,0.61198,-58.375,22.4375,-21.1875,0.0751953,-0.540039,0.791992
1485545707997648,-0.634358,-0.0188426,0.604003,-5,34.6875,-3,-0.00244141,-0.754883,0.663574
1485545708011646,-0.637072,-0.0107794,0.592752,-9.625,34.5,-14.5625,-0.0483398,-0.584473,0.820801
1485545708034653,-0.651413,-0.00107616,0.581859,-41.6875,39.5625,-9.1875,-0.0219727,-0.590332,0.782715
1485545708057169,-0.671241,0.0100403,0.567772,-51.4375,47.625,-14.25,-0.0522461,-0.677246,0.738281
1485545708071679,-0.689194,0.0210158,0.552266,-47.0625,50.1875,-16.625,-0.059082,-0.632324,0.687988
1485545708094696,-0.703788,0.0305205,0.536351,-37,47.75,-19.25,-0.0703125,-0.689453,0.722168
1485545708117211,-0.717938,0.0389102,0.521759,-33,40.3125,-20.125,-0.135254,-0.765137,0.747559
1485545708131721,-0.730857,0.04475,0.507458,-30.5,32.625,-25.5625,-0.179688,-0.758789,0.742188
1485545708154738,-0.749796,0.0594277,0.499047,-35.3125,29.5625,-4.125,-0.39209,-0.960449,0.663086
1485545708177266,-0.760137,0.0790222,0.496857,-18.5,27.4375,18.3125,-0.411621,-0.791504,0.604492
1485545708198280,-0.758817,0.089056,0.493565,7.8125,18.5,4.75,-0.253418,-0.64209,0.611816
1485545708214795,-0.758014,0.0998925,0.492855,4.125,16.875,13.3125,-0.217773,-0.567871,0.571289
1485545708237305,-0.764287,0.116393,0.493001,-14.875,26.125,26.3125,-0.24707,-0.636719,0.592285
1485545708258320,-0.776292,0.134967,0.486604,-23.5625,45.5625,20.3125,-0.228027,-0.786621,0.62793
1485545708274832,-0.783688,0.156279,0.474119,-10.625,63.5625,13.875,-0.242188,-0.760742,0.655762
1485545708297347,-0.784014,0.181162,0.459162,4.4375,73.5,13.75,-0.319824,-0.689453,0.725098
1485545708318363,-0.785393,0.207956,0.445702,1.875,72.8125,18.5625,-0.398438,-0.725586,0.759766
1485545708334873,-0.790454,0.234851,0.432494,-8,72.375,19.6875,-0.424805,-0.724121,0.748535
1485545708357390,-0.79726,0.259226,0.417894,-14.375,72.0625,13.75,-0.408691,-0.674805,0.757324
1485545708378404,-0.809505,0.281306,0.401814,-25.3125,70.8125,8.25,-0.42334,-0.730469,0.749023
1485545708394906,-0.82651,0.300692,0.384512,-36.75,68.6875,2.875,-0.416992,-0.751465,0.738281
1485545708417932,-0.849392,0.315835,0.364038,-49.4375,66.625,-9.75,-0.424805,-0.750977,0.686035
1485545708438436,-0.874278,0.324906,0.342833,-58.25,59.75,-22.625,-0.408203,-0.719727,0.725098
1485545708454948,-0.894467,0.331209,0.325107,-51.3125,53.6875,-14.9375,-0.321777,-0.78125,0.807617
1485545708477464,-0.906232,0.338075,0.30971,-25.25,48.125,-9.9375,-0.373535,-0.866699,0.798828
1485545708498478,-0.911725,0.341697,0.295899,-11.125,37.0625,-18.25,-0.410645,-0.773926,0.759766
1485545708514991,-0.920613,0.342506,0.285691,-25.125,24.875,-18.0625,-0.391113,-0.727051,0.728516
1485545708537507,-0.932213,0.342605,0.279237,-32,17.8125,-8.625,-0.322266,-0.799316,0.691406
1485545708558521,-0.942192,0.34419,0.272441,-23.4375,20.75,-3.6875,-0.315918,-0.864258,0.652832
1485545708574046,-0.948355,0.347281,0.264161,-14,25.5,-5.375,-0.303223,-0.702148,0.585938
1485545708597560,-0.954116,0.349115,0.256352,-9.9375,21.625,-6.6875,-0.312988,-0.754395,0.555176
1485545708618574,-0.95984,0.354003,0.250677,-10.125,19.375,1.875,-0.367188,-0.777344,0.528809
1485545708634085,-0.961435,0.359415,0.246629,-1.5625,17.3125,5,-0.370605,-0.751465,0.54541
1485545708657601,-0.960561,0.365585,0.242897,3.6875,19.1875,8.3125,-0.343262,-0.719727,0.546875
1485545708680118,-0.961515,0.369339,0.235756,1.4375,23.5,-1.6875,-0.331543,-0.720703,0.565918
1485545708694118,-0.969456,0.372789,0.224551,-11.3125,31.3125,-7.0625,-0.339355,-0.779297,0.534668
1485545708701623,-0.976707,0.375396,0.211659,-7.6875,33.25,-12.9375,-0.358398,-0.765137,0.524902
1485545708722638,-0.985789,0.378475,0.197815,-9.375,34.625,-13.125,-0.380859,-0.8125,0.501953
1485545708745152,-0.996907,0.382195,0.183039,-14.8125,37.5625,-12.875,-0.397461,-0.807617,0.490234
1485545708761664,-1.00888,0.387442,0.16814,-16.1875,40,-9.625,-0.40332,-0.809082,0.475586
1485545708782679,-1.02124,0.393551,0.152827,-17.6875,42.8125,-7.375,-0.411621,-0.80957,0.480469
1485545708805195,-1.03574,0.401984,0.140299,-27.6875,38.125,-0.6875,-0.476563,-0.810547,0.47998
1485545708821706,-1.04642,0.408284,0.13204,-20.625,26.875,4.1875,-0.461914,-0.906738,0.505859
1485545708842721,-1.04916,0.412131,0.127489,-4.1875,19.25,8,-0.383789,-0.92041,0.555664
1485545708865238,-1.0452,0.414745,0.123653,10.375,17.75,5.875,-0.361816,-0.86377,0.601074
1485545708881750,-1.04148,0.415791,0.119487,9.25,16.5625,1.3125,-0.34375,-0.822266,0.589355
1485545708902765,-1.04079,0.415109,0.115081,2.4375,13.3125,-3.875,-0.340332,-0.789551,0.544922
1485545708925281,-1.04581,0.413027,0.111461,-11.25,9.0625,-4.75,-0.315918,-0.810547,0.494629
1485545708943293,-1.05676,0.41017,0.106765,-23.3125,9.8125,-5.125,-0.277344,-0.845703,0.42627
1485545708965837,-1.06646,0.406237,0.0990299,-15.375,15.3125,-10.5,-0.233887,-0.806641,0.380859
1485545708985363,-1.07971,0.402512,0.0886477,-19.9375,20.25,-14.9375,-0.306641,-0.908691,0.37793
1485545709001874,-1.09854,0.401872,0.0756717,-30.125,29.25,-8.9375,-0.313965,-0.962891,0.330566
1485545709022889,-1.10747,0.402113,0.0615374,0.4375,32,-10.125,-0.352051,-0.96875,0.310059
1485545709062417,-1.10994,0.402818,0.047274,13.0625,35.1875,-9.625,-0.312988,-0.852051,0.353027
1485545709064917,-1.12029,0.407277,0.0276291,-7.75,51.625,-12.1875,-0.376953,-0.754883,0.368652
1485545709082929,-1.14088,0.412097,0.00469863,-34.75,60.375,-14.8125,-0.394531,-0.756836,0.373535
1485545709105445,-1.1639,0.410082,-0.0198022,-42.0625,57,-34.3125,-0.401855,-0.743652,0.392578
1485545709121957,-1.19054,0.39783,-0.043947,-53.125,46.9375,-57.9375,-0.422852,-0.901367,0.423828
1485545709143009,-1.218,0.393195,-0.0669064,-57.8125,53.5625,-34.875,-0.43457,-0.95166,0.423828
1485545709165025,-1.22849,0.384872,-0.0919594,-8.1875,57.3125,-43.6875,-0.341797,-0.852539,0.395996
1485545709181535,-1.24212,0.371063,-0.115344,-23.875,49.125,-59.125,-0.368164,-0.841309,0.437988
1485545709202546,-1.26318,0.36794,-0.138644,-48.0625,57.625,-39.125,-0.452637,-0.674805,0.405273
1485545709225062,-1.28234,0.344572,-0.161393,-40,43.5,-75.4375,-0.235352,-0.899902,0.386719
1485545709241574,-1.29487,0.317963,-0.179898,-28.5625,31.8125,-83.5625,-0.222656,-0.818848,0.391113
1485545709262589,-1.30436,0.292367,-0.197404,-16.4375,29.75,-75.9375,-0.165527,-0.884277,0.307617
1485545709285105,-1.31051,0.2676,-0.214665,-8,29.125,-79.125,-0.278809,-1.08447,0.350098
1485545709301619,-1.30878,0.254129,-0.232765,15.0625,37.875,-55.3125,-0.361328,-1.0459,0.326172
1485545709322634,-1.31176,0.239307,-0.249865,0.4375,33.25,-63.0625,-0.370117,-0.896973,0.288086
1485545709345152,-1.32632,0.222863,-0.259179,-36.4375,10.875,-62,-0.368652,-0.93457,0.241699
1485545709361680,-1.33844,0.201622,-0.263588,-30.8125,-5.8125,-74.625,-0.40332,-1.03223,0.223633
1485545709382695,-1.34235,0.175817,-0.26269,-13,-22.6875,-86.9375,-0.416504,-1.02197,0.258789
1485545709405211,-1.34654,0.144811,-0.256663,-13,-40,-97.125,-0.347168,-0.907227,0.181641
1485545709423224,-1.35007,0.112124,-0.247495,-10.5,-47.5,-88.875,-0.162109,-0.988281,0.175293
1485545709442743,-1.34947,0.0830815,-0.236504,4.125,-50.125,-78.0625,-0.136719,-0.979492,0.143066
1485545709472763,-1.34611,0.0560791,-0.225769,10.75,-48.8125,-75.5,-0.154785,-0.912109,0.15625
1485545709483266,-1.34826,0.0251824,-0.218264,-2.875,-42.5,-87.875,-0.115723,-0.873047,0.13916
1485545709510285,-1.35553,-0.00901554,-0.213992,-15.6875,-34.375,-98.8125,-0.0727539,-0.952637,0.126953
1485545709525297,-1.35909,-0.0454375,-0.210795,-8.25,-31.375,-101.563,-0.0415039,-1.03418,0.129395
1485545709547803,-1.35497,-0.078445,-0.206932,16,-32.4375,-97.375,-0.0224609,-1.06641,0.183594
1485545709562813,-1.346,-0.111186,-0.200837,29.375,-39.5,-97.9375,-0.0307617,-1.03125,0.203125
1485545709584829,-1.34106,-0.150178,-0.19148,17,-51.6875,-105.188,0.00390625,-0.941895,0.256348
1485545709607845,-1.34471,-0.189932,-0.17659,-4.1875,-67.0625,-101.75,0.158203,-0.922363,0.287598
1485545709622856,-1.35273,-0.227662,-0.157338,-9.9375,-75.5,-92.0625,0.267578,-1.00977,0.194336
1485545709645373,-1.36175,-0.261168,-0.139113,-8.3125,-69.0625,-84.0625,0.256836,-1.01123,0.14209
1485545709667889,-1.37008,-0.29479,-0.126403,-11.0625,-53.25,-87.875,0.280762,-0.946777,0.153809
1485545709682900,-1.37752,-0.331688,-0.118371,-14.0625,-42.125,-100.125,0.278809,-0.927734,0.170898
1485545709705415,-1.38304,-0.371473,-0.112235,-9.4375,-38.1875,-110.188,0.284668,-0.924805,0.159668
1485545709727932,-1.38476,-0.413844,-0.10428,4.3125,-42.9375,-116.438,0.347656,-0.918457,0.132324
1485545709742942,-1.37975,-0.457164,-0.0952184,25.9375,-46.1875,-118.125,0.456543,-0.960449,0.126465
1485545709765459,-1.36784,-0.501238,-0.0876644,44.9375,-43.375,-120.438,0.491699,-0.91748,0.14209
1485545709787975,-1.35241,-0.546852,-0.0820198,52.1875,-41.0625,-125.438,0.504883,-0.879395,0.203613
1485545709802986,-1.34104,-0.593644,-0.0770075,39.3125,-42.5625,-128.375,0.543945,-0.79541,0.255859
1485545709825500,-1.33875,-0.64038,-0.0716088,14.6875,-43.5625,-126.625,0.619141,-0.736328,0.243652
1485545709848016,-1.33861,-0.685945,-0.0696696,3.4375,-34.125,-125.625,0.687012,-0.769043,0.188965
1485545709863026,-1.33513,-0.730087,-0.0716582,6.0625,-25.1875,-123.188,0.746094,-0.743164,0.193359
1485545709885545,-1.3275,-0.7721,-0.0769603,11.375,-17.8125,-119.125,0.765625,-0.710449,0.178223
1485545709907558,-1.31584,-0.813018,-0.0853103,16.625,-12.5,-117.063,0.793945,-0.686523,0.186035
1485545709922569,-1.3028,-0.8513,-0.0944074,17.5625,-11.75,-110.438,0.805176,-0.657715,0.212402
1485545709945085,-1.29096,-0.886814,-0.105202,10.3125,-8.1875,-101.875,0.851563,-0.57959,0.168457
1485545709967601,-1.27817,-0.920884,-0.119526,4.625,-1.4375,-96.3125,0.886719,-0.562988,0.164063
1485545709985614,-1.26576,-0.950338,-0.137187,-5.625,4.6875,-85.625,0.898926,-0.541016,0.177734
1485545710005128,-1.248,-0.976409,-0.159761,-4.0625,10.125,-76.75,0.898438,-0.486816,0.225098
1485545710027643,-1.23037,-0.999784,-0.183791,-11.1875,11,-68.5625,0.904297,-0.421875,0.246094
1485545710042654,-1.21543,-1.02032,-0.207348,-18.4375,10.0625,-59.4375,0.92334,-0.392578,0.258301
1485545710065170,-1.20347,-1.03711,-0.228965,-22.125,8.3125,-49.8125,0.916016,-0.408691,0.270508
1485545710087698,-1.19284,-1.04968,-0.246412,-15.4375,5.5625,-40.875,0.897949,-0.449219,0.269043
1485545710102709,-1.18141,-1.05953,-0.259445,-2,2,-32.4375,0.887695,-0.456543,0.264648
1485545710125229,-1.1706,-1.06653,-0.26727,9.0625,-1.375,-24.25,0.87793,-0.462402,0.246094
1485545710147745,-1.16269,-1.07123,-0.2703,14.625,-4.0625,-16.625,0.868652,-0.479004,0.23291
1485545710165758,-1.15772,-1.07348,-0.269151,16.75,-5.6875,-10.25,0.858398,-0.503906,0.213379
1485545710185264,-1.1551,-1.07371,-0.265505,18,-6.4375,-5.125,0.838867,-0.527344,0.210449
1485545710207780,-1.15333,-1.07189,-0.260402,18.3125,-6.25,-1.25,0.82959,-0.547363,0.213379
1485545710222791,-1.15254,-1.06981,-0.255609,16.0625,-4.5,0.6875,0.833496,-0.548828,0.201172
1485545710245306,-1.15197,-1.06698,-0.25215,11.3125,-1.4375,2.0625,0.831543,-0.530762,0.193359
1485545710267825,-1.15169,-1.06357,-0.250935,4.6875,1.5625,3.9375,0.827148,-0.512695,0.19873
1485545710282835,-1.15336,-1.05928,-0.250371,-2.4375,3.0625,5.9375,0.820313,-0.512695,0.20459
1485545710305349,-1.15616,-1.05406,-0.248849,-3.4375,2.75,7.8125,0.826172,-0.535645,0.211914
1485545710327870,-1.15763,-1.04866,-0.245883,3.3125,0.75,9.9375,0.838379,-0.538086,0.216309
1485545710342875,-1.15762,-1.04383,-0.241493,11.4375,-1.4375,11.6875,0.852051,-0.515625,0.219727
1485545710365391,-1.1574,-1.03903,-0.235397,15.75,-3.0625,14.3125,0.847656,-0.487793,0.214844
1485545710387907,-1.15729,-1.03392,-0.228531,17.375,-3.5625,17.3125,0.847656,-0.46582,0.205078
1485545710404422,-1.15797,-1.02817,-0.220675,17.25,-3.125,20.125,0.850098,-0.456055,0.188477
1485545710425433,-1.16009,-1.02224,-0.212284,14.8125,-2.5,22.25,0.847656,-0.444824,0.17041
1485545710447939,-1.16381,-1.01608,-0.204173,10.3125,-1.8125,23.0625,0.848633,-0.44873,0.17041
1485545710464450,-1.16788,-1.00973,-0.196784,6.5,-1.625,23.1875,0.84375,-0.455566,0.179199
1485545710485465,-1.1735,-1.00358,-0.18895,4.375,-1.875,22.8125,0.850098,-0.473145,0.174316
1485545710507981,-1.17849,-0.99774,-0.181112,4.875,-2.625,21.1875,0.868164,-0.491699,0.176758
1485545710524493,-1.18216,-0.992673,-0.173626,7.8125,-3.375,19.625,0.885254,-0.500488,0.18457
1485545710545008,-1.18417,-0.988357,-0.166404,11.875,-4.1875,18.8125,0.871094,-0.475586,0.1875
1485545710568024,-1.18454,-0.984486,-0.15967,14.625,-4.75,19.8125,0.842285,-0.433105,0.196289
1485545710584036,-1.185,-0.980186,-0.152737,13.75,-5.1875,21.1875,0.819824,-0.404785,0.198242
1485545710605051,-1.18695,-0.976099,-0.145426,10.625,-6.0625,21.4375,0.801758,-0.406738,0.197754
1485545710627567,-1.19039,-0.971485,-0.136985,9.125,-7.5625,20.1875,0.799316,-0.446289,0.19873
1485545710644078,-1.19412,-0.968059,-0.127483,12.5,-9.4375,17.25,0.808105,-0.484375,0.183105
1485545710665093,-1.19619,-0.965868,-0.11775,17.5,-10.6875,13.6875,0.826172,-0.493164,0.178223
1485545710687609,-1.19743,-0.965804,-0.108705,18.1875,-11.25,9.6875,0.848633,-0.480469,0.17334
1485545710704119,-1.19943,-0.966802,-0.100768,12.9375,-10.9375,5.9375,0.861328,-0.474121,0.17627
1485545710725134,-1.20268,-0.968962,-0.0939803,7,-10.375,2.4375,0.864746,-0.484863,0.17627
1485545710747651,-1.20589,-0.972077,-0.0883216,4.5,-10.0625,-0.75,0.864746,-0.48291,0.186035
1485545710765676,-1.20788,-0.975784,-0.0837501,4.5,-10.3125,-3.625,0.862793,-0.481934,0.199219
1485545710785187,-1.20907,-0.980335,-0.0796427,5.3125,-10.75,-6.4375,0.861328,-0.478027,0.20459
1485545710809205,-1.20984,-0.985523,-0.075941,5.875,-11.1875,-8.8125,0.85498,-0.481934,0.205078
1485545710825715,-1.20976,-0.990968,-0.0723789,7.75,-11.0625,-10.75,0.85791,-0.486816,0.203125
1485545710845230,-1.20888,-0.99696,-0.0692695,10.0625,-10.75,-12.3125,0.854492,-0.492676,0.199707
1485545710867750,-1.20733,-1.00315,-0.066864,9.9375,-9.8125,-14,0.859375,-0.488281,0.194336
1485545710885757,-1.20599,-1.00974,-0.0653336,7.5,-8.4375,-15.8125,0.859375,-0.489258,0.185059
1485545710908274,-1.20432,-1.01625,-0.0653547,4.4375,-6.75,-17.25,0.853027,-0.486816,0.189941
1485545710927788,-1.20223,-1.0226,-0.0670285,1.3125,-4.9375,-18.4375,0.835449,-0.481934,0.196777
1485545710945800,-1.20031,-1.02888,-0.0699549,-1.625,-3.4375,-19.25,0.835938,-0.48877,0.198242
1485545710965313,-1.19814,-1.03497,-0.0737517,-3.1875,-2,-19.75,0.837891,-0.490723,0.198242
1485545710987830,-1.19475,-1.04037,-0.0785604,-3.0625,-0.75,-19.875,0.838379,-0.496094,0.200195
