timestamp,roll,pitch,yaw,gyro_x,gyro_y,gyro_z,accel_x,accel_y,accel_z
1482545586721222,-0.434697,-0.118037,-1.45819,-5.1875,6.9375,-2.4375,0.0947266,-0.376465,0.915527
1482545586746241,-0.438142,-0.116746,-1.45992,-8.5625,4.0625,-3.3125,0.097168,-0.446289,0.894531
1482545586761252,-0.439085,-0.116237,-1.46099,-0.125,4.0625,-2.1875,0.134277,-0.457031,0.867676
1482545586781265,-0.436203,-0.115478,-1.46105,9.375,0.75,0,0.097168,-0.446289,0.927734
1482545586806288,-0.428725,-0.113977,-1.46246,22.0625,3.1875,-3.1875,0.0717773,-0.422852,0.886719
1482545586826302,-0.42573,-0.114289,-1.4625,9.3125,-2.4375,-1.4375,0.0898438,-0.436035,0.925781
1482545586841313,-0.420027,-0.117204,-1.46345,13.8125,-4.5625,-4.5625,0.154785,-0.385742,0.940918
1482545586898380,-0.416485,-0.119628,-1.46464,10,-4.75,-5.9375,0.120117,-0.405762,0.912598
1482545586899381,-0.414472,-0.123077,-1.46638,8.0625,-7,-8.625,0.124512,-0.443848,0.904297
1482545586904139,-0.408821,-0.126324,-1.46771,19.125,-5.8125,-7.375,0.14502,-0.452148,0.915527
1482545586926152,-0.399214,-0.12807,-1.46882,26.4375,-6.1875,-6.25,0.0888672,-0.389648,0.944336
1482545586947154,-0.388392,-0.130744,-1.46956,24.8125,-9.5625,-5.125,0.0825195,-0.299316,0.95459
1482545586998693,-0.382625,-0.134801,-1.46888,10.25,-13.125,-2.1875,0.118164,-0.283203,0.96582
1482545587008713,-0.384791,-0.139467,-1.46645,-7.9375,-17.8125,0.4375,0.101074,-0.361328,0.985352
1482545587009714,-0.386664,-0.146347,-1.46539,-6.6875,-20.9375,-4.875,0.131348,-0.36377,0.958008
1482545587022736,-0.388831,-0.154403,-1.46406,-6.625,-23.125,-5.25,0.154785,-0.373047,0.955566
1482545587043738,-0.393814,-0.164209,-1.46397,-11.8125,-25.125,-10.9375,0.179688,-0.428711,0.927734
1482545587065767,-0.399467,-0.174122,-1.46412,-10.4375,-25.4375,-11.875,0.182617,-0.465332,0.897461
1482545587082766,-0.400124,-0.184146,-1.46654,2.75,-22.4375,-17.875,0.207031,-0.478027,0.904297
1482545587103286,-0.394672,-0.192871,-1.47034,12.4375,-16.6875,-18.4375,0.239258,-0.38623,0.967773
1482545587126325,-0.385825,-0.20235,-1.47768,21,-14.8125,-28.8125,0.234863,-0.363281,0.896484
1482545587142335,-0.375168,-0.21255,-1.48486,33.125,-20.1875,-31.375,0.192383,-0.451172,0.866699
1482545587163350,-0.356599,-0.224888,-1.49027,51.25,-24.625,-25.5,0.288086,-0.384277,0.97998
1482545587186366,-0.337488,-0.234805,-1.49179,50.625,-18.9375,-10.9375,0.304688,-0.240234,0.828125
1482545587202880,-0.331774,-0.244108,-1.48913,12.375,-21.6875,1.75,0.32373,-0.209473,0.86377
1482545587223896,-0.334336,-0.254079,-1.48124,3.1875,-27,12.625,0.346191,-0.37207,0.846191
1482545587245924,-0.328594,-0.261803,-1.46731,35.8125,-24.5625,29.8125,0.363281,-0.415039,0.799316
1482545587262936,-0.313694,-0.268745,-1.45113,60.0625,-22.75,38.125,0.387695,-0.341309,0.800781
1482545587283939,-0.298615,-0.272459,-1.43139,60.4375,-18.6875,50.1875,0.360352,-0.287109,0.811523
1482545587306000,-0.287522,-0.272817,-1.40961,47.3125,-17.375,57.9375,0.267578,-0.23877,0.867188
1482545587324001,-0.285809,-0.274301,-1.38792,21.375,-22.875,55.875,0.239258,-0.260254,0.914063
1482545587347016,-0.289604,-0.277829,-1.36576,10.0625,-27.3125,54.3125,0.271973,-0.335449,0.928711
1482545587366030,-0.291495,-0.282518,-1.34118,16.25,-29.8125,61,0.311035,-0.307617,0.908203
1482545587384042,-0.291013,-0.285111,-1.31616,20.6875,-27.9375,64.125,0.27002,-0.263184,0.92334
1482545587404058,-0.293444,-0.28653,-1.29181,12.75,-28.625,61,0.196777,-0.276367,0.921387
1482545587426075,-0.302636,-0.288457,-1.26723,-5.4375,-30.5,61,0.199219,-0.301758,0.90918
1482545587444088,-0.312389,-0.290074,-1.24142,-4.9375,-28.5,64.3125,0.235352,-0.316406,0.887207
1482545587464103,-0.318239,-0.290534,-1.21586,6.5625,-24.0625,65.3125,0.261719,-0.328125,0.881348
1482545587486118,-0.323953,-0.289349,-1.19063,6.8125,-20.5625,65.5625,0.245605,-0.330078,0.870117
1482545587504133,-0.33105,-0.286243,-1.16387,4.4375,-18.25,70.375,0.213867,-0.342773,0.859863
1482545587523147,-0.334273,-0.2828,-1.13812,11.75,-16.5,69.1875,0.231934,-0.30957,0.879395
1482545587546164,-0.332736,-0.277751,-1.11634,15.5,-10.3125,61.5625,0.214844,-0.22998,0.936523
1482545587564177,-0.333027,-0.271664,-1.09822,5.9375,-7.75,52.375,0.162598,-0.216309,0.959473
1482545587583203,-0.339646,-0.267797,-1.08412,-15.0625,-8.6875,40.375,0.173828,-0.220703,0.938965
1482545587606238,-0.348833,-0.265321,-1.0724,-21.6875,-8.0625,32.5625,0.216309,-0.280273,0.953125
1482545587624261,-0.35435,-0.262125,-1.06181,-11.625,-4.4375,30.5,0.237305,-0.30957,0.987793
1482545587643264,-0.357776,-0.258397,-1.0514,-6.3125,-2.5625,31.125,0.242676,-0.311523,1.01025
1482545587666293,-0.361452,-0.254802,-1.04259,-10.6875,-0.875,27.1875,0.236816,-0.259277,0.951172
1482545587684306,-0.368604,-0.252428,-1.03746,-23.5,-0.5,17.3125,0.230957,-0.251953,0.925293
1482545587706337,-0.378406,-0.251216,-1.03481,-26.875,1.1875,8.5625,0.260254,-0.350586,0.916016
1482545587726338,-0.387472,-0.249416,-1.0321,-20.3125,2.0625,7.8125,0.251953,-0.432617,0.90918
1482545587744352,-0.388436,-0.247148,-1.03106,1.8125,2.75,3.1875,0.213867,-0.432617,0.901367
1482545587763364,-0.386665,-0.244548,-1.02995,7.4375,3.1875,3.8125,0.196289,-0.389648,0.888184
1482545587786390,-0.386878,-0.241771,-1.02972,0.4375,6.625,3.375,0.226074,-0.366211,0.867676
1482545587804422,-0.392101,-0.237573,-1.02919,-13.625,10.1875,5.5,0.210449,-0.363281,0.835449
1482545587831459,-0.403051,-0.233298,-1.02869,-27.4375,9.9375,4.3125,0.191406,-0.393066,0.787109
1482545587846464,-0.413711,-0.22853,-1.02867,-28.25,11.375,4.5,0.19043,-0.391602,0.810547
1482545587864477,-0.419815,-0.223548,-1.02771,-15.0625,11.5625,7.75,0.206055,-0.411621,0.858887
1482545587888499,-0.422785,-0.219669,-1.02641,-7.125,9.4375,7.8125,0.223633,-0.401367,0.866211
1482545587906550,-0.425849,-0.217254,-1.02565,-6.625,8.9375,6.25,0.256836,-0.398926,0.820801
1482545587924544,-0.428134,-0.215219,-1.02586,-6.6875,10.8125,4.1875,0.281738,-0.374023,0.818359
1482545587945573,-0.432137,-0.213284,-1.02697,-12.8125,12.125,2.3125,0.28418,-0.365723,0.820313
1482545587966592,-0.444245,-0.212093,-1.02914,-33.875,13.6875,-1,0.317871,-0.410156,0.784668
1482545587982586,-0.462157,-0.209655,-1.03313,-48.625,19.75,-3.8125,0.320801,-0.456055,0.760742
1482545588005633,-0.47512,-0.203023,-1.0383,-41.9375,28,-1.5625,0.272461,-0.411621,0.853516
1482545588028667,-0.484835,-0.196451,-1.04229,-36.9375,24.25,1.1875,0.246094,-0.378906,0.924316
1482545588042677,-0.497312,-0.191677,-1.04634,-45.25,20.4375,-0.0625,0.253418,-0.379883,0.918457
1482545588065676,-0.511535,-0.187384,-1.05082,-46.0625,20.0625,-2.9375,0.250977,-0.462402,0.90918
1482545588088693,-0.523114,-0.183859,-1.05632,-37.5625,19.125,-6.375,0.23877,-0.5,0.915527
1482545588109713,-0.526737,-0.179269,-1.06277,-21.25,20.5625,-7.8125,0.210449,-0.455566,0.992676
1482545588125724,-0.529345,-0.175155,-1.06821,-21.0625,15.875,-5.875,0.181152,-0.432129,1.05273
1482545588148741,-0.536185,-0.172081,-1.07195,-31.3125,9.4375,-5,0.145996,-0.44043,1.01465
1482545588169772,-0.545443,-0.170234,-1.07492,-34.0625,4.5,-6.125,0.128418,-0.521484,1.01807
1482545588185783,-0.551119,-0.169388,-1.07741,-19.4375,1.0625,-6.9375,0.128418,-0.588379,1.01904
1482545588208334,-0.549398,-0.168199,-1.07919,3.1875,-0.125,-6,0.102539,-0.594238,0.98584
1482545588229352,-0.543965,-0.16631,-1.08008,12.875,-0.5625,-2.5,0.0766602,-0.534668,0.948242
1482545588245363,-0.539002,-0.162268,-1.07878,13.0625,0.75,5.0625,0.050293,-0.515137,0.90918
1482545588268378,-0.534845,-0.157097,-1.07557,12.3125,0.8125,11.1875,0.0493164,-0.519531,0.912109
1482545588289393,-0.530773,-0.151514,-1.07038,13.125,0.1875,17.25,0.0556641,-0.510742,0.894043
1482545588305618,-0.526139,-0.145598,-1.06358,15.6875,0.375,22.625,0.0727539,-0.506348,0.879395
1482545588328634,-0.520116,-0.138821,-1.05554,21.375,1.875,26.9375,0.0839844,-0.52002,0.880859
1482545588349648,-0.511668,-0.131543,-1.04658,29.9375,3.4375,31.25,0.097168,-0.524414,0.869629
1482545588365660,-0.502385,-0.123931,-1.03764,30.3125,3.875,30.75,0.078125,-0.497559,0.88916
1482545588389213,-0.494697,-0.115829,-1.02839,23.5625,4.9375,33.125,0.0727539,-0.450684,0.885254
1482545588416776,-0.491948,-0.107737,-1.01742,11.5625,3.375,37,0.0668945,-0.465332,0.861328
1482545588425783,-0.491394,-0.0997836,-1.00638,6.875,3.5625,37.25,0.0683594,-0.484375,0.844238
1482545588447803,-0.492288,-0.0926733,-0.994749,6.125,1.0625,37.625,0.0678711,-0.526367,0.821777
1482545588468814,-0.490731,-0.0865015,-0.98264,14.6875,0.5,38.8125,0.101563,-0.562012,0.837402
1482545588485825,-0.484504,-0.07955,-0.970325,26.375,4.1875,41.3125,0.122559,-0.536621,0.837402
1482545588508362,-0.476664,-0.0704835,-0.958113,29.8125,9.3125,43.9375,0.106934,-0.508789,0.841797
1482545588529384,-0.471578,-0.0594146,-0.946629,19.625,15.875,44.5625,0.0957031,-0.481445,0.843262
1482545588545390,-0.470756,-0.0461332,-0.935888,6.9375,21.25,45.5625,0.0668945,-0.476074,0.845215
1482545588568407,-0.472678,-0.0325738,-0.924289,-0.625,21.0625,47.625,0.0537109,-0.494141,0.852051
1482545588589408,-0.475426,-0.019028,-0.912608,-2.625,20.5,48.0625,0.0375977,-0.52002,0.876465
1482545588605426,-0.477517,-0.00568689,-0.900815,-1.625,19.25,47.9375,0.0200195,-0.512207,0.865234
1482545588628444,-0.479076,0.007802,-0.888675,0.5625,18.125,48.3125,-0.0102539,-0.527832,0.865234
1482545588649459,-0.479733,0.0208606,-0.875321,1.75,13.4375,50.1875,-0.0541992,-0.52002,0.866211
1482545588665472,-0.480379,0.0315957,-0.860529,1.875,5.0625,50.5625,-0.0776367,-0.526367,0.863281
1482545588688487,-0.481603,0.0397821,-0.844162,-0.75,-4.4375,50.6875,-0.0942383,-0.515625,0.844238
1482545588709087,-0.482893,0.0476124,-0.826151,0.1875,-8.125,54.0625,-0.114258,-0.538574,0.844238
1482545588725097,-0.480216,0.0548256,-0.806737,8.3125,-11.25,57.3125,-0.111816,-0.507324,0.86084
1482545588748141,-0.475454,0.0604431,-0.786335,12.625,-12.6875,59.25,-0.0615234,-0.470703,0.842773
1482545588771130,-0.472305,0.0645908,-0.765463,8.6875,-14.125,59.9375,-0.0214844,-0.473633,0.821777
1482545588785143,-0.469578,0.0669662,-0.746055,5.25,-16.1875,54.375,-0.0107422,-0.444336,0.837402
1482545588808412,-0.466188,0.0673945,-0.72949,5.4375,-14.9375,45.1875,0.0166016,-0.401855,0.830566
1482545588838433,-0.465372,0.0656458,-0.714106,-0.625,-17.6875,40.375,0.0444336,-0.415039,0.817871
1482545588845424,-0.465947,0.0610263,-0.699826,-3.8125,-21.8125,34.5625,0.078125,-0.411133,0.808105
1482545588868471,-0.46492,0.053341,-0.687561,2.25,-26.25,26.125,0.100586,-0.429688,0.815918
1482545588891045,-0.462285,0.0428258,-0.67859,8.5,-26.4375,15.6875,0.148438,-0.453125,0.828125
1482545588905158,-0.459744,0.0306252,-0.674062,12.0625,-20.75,4.125,0.227539,-0.499512,0.84375
1482545588928657,-0.448355,0.0184939,-0.671736,31.875,-10.5625,2.375,0.358398,-0.418457,0.879395
1482545588950672,-0.43027,0.0103936,-0.669715,43,-5.375,3.8125,0.274902,-0.302246,0.961914
1482545588971698,-0.421404,0.00445035,-0.669162,15.625,-1.375,1.0625,0.225586,-0.293945,0.985352
1482545588988711,-0.423804,0.00312909,-0.668417,-7.1875,11.375,7.25,0.239258,-0.448242,1.01172
1482545589010728,-0.422237,0.00898645,-0.669566,9.3125,24.75,7.9375,0.116699,-0.529785,1.01611
1482545589031752,-0.412921,0.0146157,-0.670669,26.8125,16.375,3.6875,-0.0107422,-0.445313,1.00635
1482545589048755,-0.40422,0.0180269,-0.670684,20.375,8.5625,3.3125,-0.0253906,-0.351563,0.98584
1482545589070770,-0.404303,0.0198523,-0.668699,-0.1875,0.3125,6.5,-0.0561523,-0.412109,0.953125
1482545589092318,-0.401926,0.018941,-0.667547,8.5,-5.0625,1.375,-0.0439453,-0.435059,0.964844
1482545589108355,-0.393426,0.0140759,-0.668243,23.3125,-13.125,-7.8125,-0.0283203,-0.365723,0.920898
1482545589130379,-0.386703,0.00760306,-0.670145,17.0625,-16.375,-12.75,-0.03125,-0.347168,0.935547
1482545589151388,-0.382348,0.00399856,-0.67283,13.125,-6.4375,-10.75,0.00488281,-0.391113,0.94043
1482545589168400,-0.378668,0.00442357,-0.676594,14.75,5.6875,-9.25,0.000976563,-0.438477,0.942871
1482545589190931,-0.378796,0.00724345,-0.680981,0.4375,7.5,-10.5,-0.0742188,-0.381836,0.937012
1482545589211961,-0.378789,0.00899524,-0.686972,0.25,10.1875,-14.625,-0.0244141,-0.348145,0.871094
1482545589228455,-0.380961,0.0122807,-0.691346,-6.625,8.8125,-9.9375,-0.0786133,-0.361328,0.912109
1482545589251007,-0.383055,0.009522,-0.695589,-5.625,-8.875,-16.6875,-0.103516,-0.369141,0.910645
1482545589272020,-0.386732,0.00294204,-0.700791,-10.4375,-15.1875,-22.375,-0.0532227,-0.332031,0.818359
1482545589288532,-0.395217,-0.00548967,-0.706901,-19.0625,-12.4375,-24.1875,0.0527344,-0.450195,0.882813
1482545589311040,-0.400571,-0.00713845,-0.712387,-12,-2.5,-18,-0.0571289,-0.433594,0.894043
1482545589332063,-0.405717,-0.00803567,-0.716432,-12.25,-3.5,-14.1875,-0.0786133,-0.424805,0.893555
1482545589348575,-0.406117,-0.0106504,-0.724454,-1,5,-22.9375,0.0512695,-0.384277,0.877441
1482545589371091,-0.409197,-0.00641972,-0.735043,-4.0625,23.5,-22.75,0.0166016,-0.495117,0.96875
1482545589392109,-0.414647,0.000727564,-0.741915,-13.6875,18.5,-13.4375,-0.130859,-0.424805,0.888672
1482545589408661,-0.416212,0.00369576,-0.748422,-4.25,6.0625,-18,-0.148926,-0.393066,0.884766
1482545589431219,-0.417609,0.00235936,-0.752144,-1.8125,-6.8125,-14.375,-0.115723,-0.4375,0.906738
1482545589452262,-0.413044,0.00457428,-0.752769,21.8125,5.1875,0.1875,-0.0258789,-0.609375,1.08057
1482545589468764,-0.394447,0.0117611,-0.749461,49.1875,13.75,16.3125,-0.0371094,-0.363281,1.02637
1482545589490780,-0.383282,0.0234602,-0.7447,21.4375,14.6875,20.3125,-0.195801,-0.218262,0.931641
1482545589511829,-0.384382,0.0293606,-0.743038,-6.3125,8.3125,8.5,-0.109863,-0.311035,0.880859
1482545589528376,-0.382086,0.030019,-0.742825,4.75,9.0625,3.9375,0.0800781,-0.353516,0.948242
1482545589550980,-0.37606,0.0305715,-0.741589,21.75,7.3125,6.9375,0.0820313,-0.460449,0.981934
1482545589572069,-0.360507,0.0340978,-0.738227,44.25,7.75,13.25,-0.0102539,-0.365234,0.978027
1482545589588570,-0.350849,0.0356194,-0.734775,21.625,0.5625,10.6875,-0.0371094,-0.257324,0.925781
1482545589611131,-0.351285,0.0344408,-0.732858,-5.125,1.9375,6.4375,0.0737305,-0.261719,0.861816
1482545589632175,-0.354484,0.029497,-0.732081,-6.125,-3.6875,1.1875,0.129395,-0.382324,0.911621
1482545589647674,-0.349438,0.0217426,-0.731188,22.375,-10.3125,-0.9375,0.149902,-0.44873,0.905273
1482545589671200,-0.338039,0.0170616,-0.730425,33.3125,-3.875,0.8125,0.131348,-0.318359,0.872559
1482545589692214,-0.333508,0.0182917,-0.730948,10.5625,5.9375,0.25,0.0126953,-0.277832,0.90332
1482545589707763,-0.337236,0.0204838,-0.734005,-7.1875,9.125,-5.8125,-0.0146484,-0.372559,0.923828
1482545589731275,-0.340974,0.0231086,-0.738338,-7.5625,11.875,-8.75,-0.0136719,-0.385742,0.95459
1482545589753299,-0.340838,0.0261924,-0.743249,1.625,14.75,-9.75,-0.00195313,-0.356934,0.970703
1482545589767834,-0.339766,0.0300885,-0.748776,3.4375,16.4375,-10.9375,-0.0200195,-0.344238,0.968262
1482545589790929,-0.341879,0.0326626,-0.755518,-9.4375,11.0625,-16.9375,-0.0693359,-0.27002,0.927734
1482545589813430,-0.350478,0.0317325,-0.76222,-24.9375,1.5,-19.875,-0.0664063,-0.325684,0.930664
1482545589827939,-0.354586,0.0290765,-0.768096,-6.5625,0.8125,-17.5625,0.00195313,-0.419922,0.95459
1482545589851095,-0.349766,0.0304952,-0.77357,14.375,8.3125,-13.6875,-0.0439453,-0.352539,0.959473
1482545589873114,-0.345568,0.0340503,-0.780782,9.5,11.8125,-17.875,-0.10791,-0.297852,0.952637
1482545589888126,-0.347529,0.0361538,-0.788325,-5.8125,12,-18.625,-0.0527344,-0.329102,0.943359
1482545589911218,-0.352737,0.0372477,-0.796124,-13.0625,7.3125,-20.9375,-0.0854492,-0.353027,0.917969
1482545589933292,-0.361686,0.0355071,-0.804713,-25.5625,0.375,-26.1875,-0.0869141,-0.32959,0.902832
1482545589947808,-0.367452,0.0335566,-0.81176,-16.5,0.375,-21.5,-0.059082,-0.359375,0.961914
1482545589970820,-0.373977,0.031844,-0.819881,-19.9375,1.3125,-24.6875,-0.0712891,-0.352539,0.967285
1482545589994874,-0.385656,0.0312141,-0.828264,-36.75,1,-25.5625,-0.126953,-0.315918,0.933105
1482545590007889,-0.403428,0.0300357,-0.836925,-55.4375,1.875,-26.1875,-0.10498,-0.338867,0.983398
1482545590030955,-0.421798,0.0310754,-0.84351,-54,9.0625,-16.625,-0.0473633,-0.416992,0.996582
1482545590052955,-0.432732,0.0328683,-0.848305,-33.75,7,-12,-0.0869141,-0.401855,0.964844
1482545590067987,-0.435999,0.0328671,-0.852912,-12.625,1.6875,-14.1875,-0.0986328,-0.383301,0.944336
1482545590091003,-0.435653,0.0298103,-0.859594,-4.5,-3.25,-22.5,-0.0820313,-0.327637,0.906738
1482545590113522,-0.438602,0.0254446,-0.863333,-8.25,-12.5625,-17.875,-0.113281,-0.41748,0.893555
1482545590134537,-0.437401,0.0212693,-0.867341,5.875,-7,-15.9375,-0.0415039,-0.478027,0.949219
1482545590150548,-0.432178,0.018205,-0.87033,15.875,-2.375,-10.3125,0.0136719,-0.479004,1.00586
1482545590173565,-0.429745,0.0186189,-0.8678,3.25,-3.8125,5.8125,-0.0478516,-0.376953,0.946777
1482545590194579,-0.427606,0.0172581,-0.862743,-1.375,-11.875,10.5625,-0.0576172,-0.32373,0.962891
1482545590211095,-0.428892,0.0121611,-0.859431,-8.625,-16.75,2.9375,-0.000488281,-0.37207,0.967285
1482545590233612,-0.431947,0.00608354,-0.858823,-11.5,-15.8125,-5.4375,0.00488281,-0.382324,0.929688
1482545590254627,-0.432659,0.00109291,-0.859985,-3.125,-13.0625,-9.875,-0.0249023,-0.432617,0.967773
1482545590270638,-0.428827,-0.00356445,-0.862299,10.875,-11.875,-12.5625,-0.0356445,-0.442871,0.968262
1482545590293655,-0.421929,-0.00867893,-0.865081,17.375,-11.125,-13.8125,-0.00927734,-0.393555,0.959961
1482545590314672,-0.414802,-0.013593,-0.870668,12.3125,-5,-19.8125,0.034668,-0.305664,0.971191
1482545590331184,-0.413023,-0.0165924,-0.877059,-0.5,-1.1875,-20.5625,0.0107422,-0.341797,0.961426
1482545590353700,-0.419702,-0.0181405,-0.884228,-16,1.125,-22.125,-0.0327148,-0.475098,0.9375
1482545590374715,-0.419511,-0.0194898,-0.893498,3.9375,1.1875,-28.5625,-0.0742188,-0.474121,0.927734
1482545590391226,-0.408865,-0.0209549,-0.907621,31.75,6.25,-41.4375,-0.0732422,-0.445801,0.952637
1482545590413746,-0.393718,-0.0225374,-0.925824,40.8125,11.875,-51.5625,-0.0395508,-0.398438,1.01611
1482545590434758,-0.382579,-0.0234155,-0.948558,29.75,17.3125,-63,-0.0478516,-0.40332,1.02197
1482545590451272,-0.374957,-0.0208271,-0.974028,22.0625,28.1875,-67.5625,-0.0649414,-0.418945,0.992188
1482545590473284,-0.367875,-0.0147126,-0.997921,21.875,35.875,-59.625,-0.0649414,-0.428711,0.999023
1482545590494300,-0.359931,-0.00779209,-1.02014,24.4375,35,-54.375,-0.0854492,-0.402344,0.969238
1482545590510811,-0.354964,-0.00389087,-1.03986,10.3125,23.5,-51.9375,-0.103027,-0.303223,0.959961
1482545590540832,-0.356269,-0.000139445,-1.06191,-6.25,25.125,-57.8125,-0.0996094,-0.289063,0.878418
1482545590557344,-0.366357,0.00273295,-1.08446,-25.625,25.375,-59.4375,-0.0810547,-0.413574,0.945313
1482545590570353,-0.3758,0.00440447,-1.10318,-14,20.75,-49.4375,-0.0507813,-0.5625,0.932129
1482545590593381,-0.372347,0.00497299,-1.11778,22.75,16.875,-38.375,-0.00195313,-0.577637,0.982422
1482545590614423,-0.357177,0.00380705,-1.12968,43.75,9.375,-33.1875,0.000976563,-0.335938,0.879395
1482545590630439,-0.345487,-0.000145242,-1.13943,27.875,2.5625,-28.5,0.0522461,-0.214355,0.833984
1482545590653441,-0.347784,-0.00329266,-1.14384,-1.5625,-3.5,-14.6875,0.0175781,-0.398926,0.890137
1482545590675971,-0.344947,-0.00860818,-1.14512,18.9375,-14,-9.1875,-0.00830078,-0.487793,0.913574
1482545590690477,-0.33229,-0.0142581,-1.1449,54.9375,-12.8125,-4.1875,0.0517578,-0.580078,0.855469
1482545590713534,-0.307744,-0.0181836,-1.14076,74.4375,-5.4375,10.5,0.15332,-0.335449,0.880859
1482545590736051,-0.283007,-0.0192837,-1.13396,77.125,-1.5625,20.0625,0.124023,-0.352051,0.909668
1482545590750558,-0.26607,-0.0140587,-1.12352,50.25,11.375,34.25,0.0898438,-0.297852,1.00781
1482545590773575,-0.247415,-0.00795771,-1.11649,47.5,11.8125,24,0.0102539,-0.145508,0.95166
1482545590796091,-0.23519,-0.00438411,-1.10692,28.0625,1.875,28.8125,-0.015625,-0.129395,0.955566
1482545590810091,-0.235622,-0.00550509,-1.09828,0.9375,-11.375,22.5,-0.0322266,-0.252441,0.938477
1482545590835160,-0.235544,-0.00941162,-1.09408,3.6875,-16.6875,8.375,-0.0356445,-0.274414,0.935547
1482545590856208,-0.228386,-0.017217,-1.09001,28.4375,-22.875,6.125,0.0380859,-0.333008,0.934082
1482545590871209,-0.207564,-0.0254815,-1.08699,60.9375,-20.3125,4.5,0.0927734,-0.211426,0.932129
1482545590893287,-0.187707,-0.0319914,-1.08335,51.25,-17.8125,7.3125,0.065918,-0.097168,0.945313
1482545590915882,-0.179747,-0.0383074,-1.07883,18.875,-14.8125,10.5625,0.114746,-0.0996094,0.906738
1482545590936897,-0.178793,-0.0413868,-1.0754,3.9375,-4.375,8.875,0.128418,-0.184082,0.967773
1482545590953410,-0.175118,-0.0444915,-1.07149,13.125,-7.0625,10.3125,0.09375,-0.198242,0.922852
1482545590975925,-0.166841,-0.0500662,-1.06671,25.9375,-14.6875,10.875,0.0952148,-0.181641,0.92627
1482545590996976,-0.15575,-0.0564412,-1.06238,33.1875,-14.9375,10.4375,0.126465,-0.154297,0.928223
1482545591013488,-0.141601,-0.0604017,-1.06024,36.875,-6.625,5.3125,0.133789,-0.0737305,0.916992
1482545591036004,-0.133271,-0.0617604,-1.06035,18.3125,1.125,0.1875,0.131836,-0.0444336,0.910645
1482545591057056,-0.13197,-0.0618383,-1.0636,-2,8.75,-8.125,0.166992,-0.0512695,0.949707
1482545591073646,-0.13755,-0.0601474,-1.06674,-19.8125,8,-7.5,0.0844727,-0.0786133,0.907227
1482545591096162,-0.146198,-0.0604984,-1.06895,-23,1.4375,-6.3125,0.0844727,-0.170898,0.950684
1482545591117213,-0.148017,-0.0644154,-1.0689,-3.0625,-9.4375,-1.5,0.0800781,-0.16748,0.915039
1482545591133728,-0.1432,-0.0713741,-1.06907,12.1875,-17.1875,-2.875,0.105469,-0.11084,0.90625
1482545591156264,-0.141926,-0.0783616,-1.07127,-1.9375,-11.25,-7.8125,0.183105,-0.0571289,0.919922
1482545591177316,-0.148694,-0.0821416,-1.07454,-24.875,-1.4375,-9.25,0.193848,-0.0727539,0.948242
1482545591193365,-0.159074,-0.0829725,-1.07627,-31.625,2.1875,-4.3125,0.135742,-0.135254,0.981445
1482545591215882,-0.169141,-0.0855435,-1.07719,-25.875,-4.625,-3.75,0.109375,-0.203613,0.908203
1482545591236929,-0.172482,-0.0881418,-1.07993,-7.1875,-5.6875,-9.4375,0.090332,-0.212891,0.952637
1482545591253436,-0.17401,-0.0890186,-1.08464,-5.3125,-0.375,-13.4375,0.0820313,-0.165039,0.937012
1482545591275952,-0.177978,-0.0887268,-1.09213,-21.125,5.375,-20.4375,0.0932617,-0.0537109,0.924316
1482545591296964,-0.189966,-0.089804,-1.10085,-43.8125,6.1875,-23.4375,0.153809,-0.0771484,0.928711
1482545591313475,-0.204642,-0.0934398,-1.10893,-47.75,4.25,-22.3125,0.244629,-0.153809,1.00928
1482545591336004,-0.22145,-0.0918061,-1.11519,-47.0625,19.875,-14.4375,0.257813,-0.257324,0.962402
1482545591357023,-0.229939,-0.084317,-1.12176,-27.4375,38.125,-10.0625,0.272949,-0.195801,0.930664
1482545591373020,-0.231713,-0.0767601,-1.12906,-21.125,50.375,-8.6875,0.428711,0.00195313,0.891602
1482545591396036,-0.239583,-0.0689862,-1.13012,-35.5625,50.8125,10.1875,0.483398,-0.0512695,0.963379
1482545591417052,-0.25067,-0.0592355,-1.12943,-31.8125,44.9375,13.25,0.333984,-0.265137,1.04541
1482545591433065,-0.250545,-0.0483525,-1.13222,6.125,45.5625,3.0625,0.246094,-0.365234,1.08105
1482545591456083,-0.239028,-0.0374663,-1.13947,38.3125,46.25,-10,0.203125,-0.353027,1.06885
1482545591477170,-0.223012,-0.0267254,-1.14539,45.25,41.4375,-7.75,0.141113,-0.242188,1.07471
1482545591493162,-0.21559,-0.0187751,-1.14839,21.8125,24.1875,-3.4375,0.0195313,-0.239746,1.04785
1482545591516254,-0.216052,-0.016702,-1.15316,1.375,6.25,-12.9375,-0.0195313,-0.266113,1.02148
1482545591536864,-0.215828,-0.0189737,-1.16159,8.6875,-5.875,-25.875,-0.0424805,-0.361328,1.09619
1482545591552876,-0.209222,-0.0253666,-1.17087,21.625,-18.9375,-31.5,-0.0732422,-0.255371,0.961426
1482545591575879,-0.202662,-0.0395311,-1.18353,14.8125,-46.4375,-46.5625,-0.170898,-0.138672,0.845215
1482545591597947,-0.209544,-0.0616983,-1.19737,-18.0625,-69.9375,-55.1875,-0.17627,-0.236328,0.854492
1482545591612960,-0.218678,-0.0889381,-1.21388,-17.375,-81.1875,-67.0625,-0.138184,-0.368164,0.858398
1482545591636128,-0.21915,-0.116179,-1.23329,7.75,-83.125,-76.625,-0.162598,-0.431152,0.933594
1482545591658132,-0.207033,-0.142253,-1.25118,37.8125,-82.875,-71.0625,-0.15918,-0.349121,0.974121
1482545591672143,-0.198579,-0.165876,-1.26741,16.1875,-78.8125,-63.375,-0.160645,-0.178223,0.944824
1482545591696156,-0.199857,-0.18922,-1.28141,-12.625,-77.9375,-55.375,-0.101074,-0.174805,0.996582
1482545591718675,-0.205765,-0.207988,-1.29318,-16.8125,-61.25,-48.0625,-0.000976563,-0.324219,1.04346
1482545591732686,-0.209723,-0.219984,-1.30359,-6.75,-44,-41.25,0.00390625,-0.38623,1.07129
1482545591755702,-0.206268,-0.226456,-1.3111,9.75,-31.5,-29.375,-0.0131836,-0.297363,1.06836
1482545591778718,-0.20523,-0.230068,-1.31565,-1.0625,-23.0625,-17.75,0.0151367,-0.195313,1.01318
1482545591792729,-0.211096,-0.233273,-1.31666,-17.4375,-21.5625,-7.1875,0.0561523,-0.22168,1.03223
1482545591815748,-0.218843,-0.233925,-1.31527,-19.6875,-12.1875,0.8125,0.106445,-0.253418,1.03027
1482545591837776,-0.2218,-0.229883,-1.31447,-8.125,2.125,2.625,0.119629,-0.23584,1.04248
1482545591858791,-0.222135,-0.223923,-1.3135,-5.6875,6.4375,5.5,0.0854492,-0.141113,0.983398
1482545591875803,-0.229496,-0.222158,-1.31241,-25.9375,-3.8125,3.3125,0.108398,-0.148926,0.981445
1482545591897836,-0.245893,-0.220403,-1.30821,-42.5625,-0.875,11.375,0.19043,-0.283691,1.02637
1482545591919371,-0.26094,-0.212101,-1.30087,-31.3125,10.0625,22.625,0.106934,-0.375,1.00586
1482545591935895,-0.274945,-0.198266,-1.29098,-26.875,17,31.4375,0.0175781,-0.414551,1.06885
1482545591957898,-0.283987,-0.180089,-1.28203,-21.5625,28.4375,34.3125,-0.0522461,-0.25293,0.885254
1482545591978925,-0.298879,-0.164302,-1.26876,-33.8125,15.375,43.5625,-0.112793,-0.29541,0.86084
1482545591995926,-0.31899,-0.148799,-1.2498,-36.1875,9.6875,57.0625,-0.0966797,-0.503418,0.938477
1482545592018455,-0.327816,-0.130139,-1.22811,-0.9375,14.1875,67.6875,-0.124512,-0.562988,0.959961
1482545592039542,-0.3249,-0.108861,-1.20138,23.9375,22.3125,86.5,-0.059082,-0.424805,0.969727
1482545592055535,-0.324732,-0.0873662,-1.16969,9.1875,26.625,104.625,-0.0844727,-0.307617,0.973145
1482545592078564,-0.333484,-0.0638484,-1.13112,-16.5,25.1875,125.063,-0.110352,-0.342773,0.973633
1482545592099579,-0.344628,-0.039933,-1.08968,-24.375,22.4375,133.563,-0.132813,-0.427246,0.966309
1482545592117606,-0.349171,-0.0176761,-1.04535,-7.25,13.8125,139.938,-0.153809,-0.474609,0.94873
1482545592138120,-0.346607,0.00068365,-0.999642,10.375,3.375,140.188,-0.11084,-0.451172,0.9375
1482545592159152,-0.337644,0.016975,-0.953399,25,-1.4375,140.313,-0.0668945,-0.366211,0.925781
1482545592176164,-0.327397,0.0308384,-0.908049,26.875,-5.3125,135.438,-0.0517578,-0.356934,0.92041
1482545592198180,-0.318401,0.0406549,-0.867708,22,-9.9375,118.563,-0.0356445,-0.308594,0.930176
1482545592219697,-0.316037,0.0444602,-0.834099,-1.8125,-14.8125,96.3125,0.0292969,-0.238281,0.916504
1482545592236241,-0.323846,0.0447941,-0.80621,-21.5625,-12.1875,80.3125,0.137695,-0.37207,0.908203
1482545592258254,-0.329583,0.0460506,-0.782685,-11.0625,-4.125,69.8125,0.166504,-0.444336,0.914551
1482545592279266,-0.323724,0.0467234,-0.763463,19.6875,0.1875,58.3125,0.188965,-0.416992,0.987305
1482545592295277,-0.320181,0.0470369,-0.74887,7.25,6.0625,46,0.231445,-0.29248,0.919434
1482545592318308,-0.32327,0.0450893,-0.738201,-9.1875,6.9375,34.5,0.280762,-0.320801,0.911133
1482545592339323,-0.335825,0.0434697,-0.728271,-30,10.75,34.3125,0.323242,-0.446777,0.949707
1482545592355850,-0.342831,0.0454164,-0.719699,-14.8125,21.6875,33.625,0.324707,-0.439453,0.958496
1482545592378366,-0.340128,0.0516854,-0.711733,8.1875,29.75,34.8125,0.253906,-0.374512,0.998047
1482545592399379,-0.336455,0.0588119,-0.70138,9.25,24.25,40.1875,0.158691,-0.359375,1.00537
1482545592416891,-0.334118,0.0598546,-0.691747,11.1875,14.1875,34.3125,0.24707,-0.435547,0.985352
1482545592438907,-0.32098,0.0610156,-0.685402,40.4375,23.125,27.4375,0.318848,-0.404297,1.03906
1482545592459421,-0.305404,0.0677082,-0.680562,40.625,28.125,23.125,0.138184,-0.265137,0.984863
1482545592475935,-0.300433,0.0755136,-0.672778,5.8125,17.25,28.5,-0.0307617,-0.191406,0.939453
1482545592498452,-0.301937,0.0780194,-0.662368,-7.25,6.25,32.6875,0.0395508,-0.293457,0.972168
1482545592519453,-0.300469,0.0757832,-0.6547,6.125,-3.875,22.125,0.0595703,-0.336426,0.913086
1482545592535475,-0.292701,0.0716491,-0.647498,20.25,-11.3125,17.875,0.0195313,-0.27002,0.910156
1482545592558481,-0.287777,0.0672273,-0.643903,13.6875,-14.4375,6.4375,-0.0532227,-0.265137,0.884277
1482545592581009,-0.283798,0.0608872,-0.643647,10.8125,-19.625,-4.8125,-0.0830078,-0.258301,0.896973
1482545592595507,-0.282175,0.0531098,-0.64652,2.625,-19.625,-14.375,-0.0610352,-0.233398,0.948242
1482545592618523,-0.285916,0.0433432,-0.652575,-14.5625,-16.6875,-23.375,0.0341797,-0.225098,0.986328
1482545592641105,-0.295633,0.0387253,-0.661303,-29.625,0.125,-25.875,0.0478516,-0.234375,0.922363
1482545592655603,-0.305262,0.0382748,-0.666861,-26,4.5625,-15.375,-0.0244141,-0.310059,0.935059
1482545592678628,-0.309764,0.0343607,-0.672179,-14.8125,-2.125,-16.625,0.0283203,-0.258301,0.922852
1482545592701145,-0.309206,0.026507,-0.679518,-1.875,-7.875,-24.875,0.078125,-0.231934,0.916016
1482545592715154,-0.311571,0.018416,-0.685694,-8.9375,-13.375,-23.125,0.034668,-0.269043,0.94873
1482545592738662,-0.315611,0.0111046,-0.695557,-13.125,-7.8125,-32.25,0.0385742,-0.293457,0.983398
1482545592760680,-0.319702,0.0045694,-0.706608,-14.125,2.375,-32.5625,0.145508,-0.296387,1.02344
1482545592781694,-0.325085,-0.000193939,-0.717895,-20.5,12.1875,-30.125,0.224609,-0.266602,1.02393
1482545592798706,-0.332945,-0.00127742,-0.72958,-23.0625,22.25,-27.8125,0.216309,-0.366211,1.08203
1482545592820722,-0.343174,0.00388507,-0.741642,-25.6875,32.0625,-25.25,0.0976563,-0.43457,1.06689
1482545592842239,-0.349201,0.01124,-0.755489,-16.9375,36.9375,-29.0625,0.0375977,-0.375977,1.03467
1482545592858252,-0.354584,0.0183274,-0.770683,-16.8125,41,-31,0.0883789,-0.337891,0.991211
1482545592880768,-0.361609,0.0234035,-0.787877,-20.8125,40.5625,-37.75,0.123535,-0.327148,0.947754
1482545592901783,-0.368033,0.025872,-0.808716,-13.1875,39.5625,-48.6875,0.15332,-0.411133,0.913086
1482545592918295,-0.370145,0.0283722,-0.829546,3,38.8125,-48.6875,0.134766,-0.463867,0.911133
1482545592940851,-0.370629,0.0330213,-0.851709,5.75,40.6875,-52.0625,0.0473633,-0.436035,0.911621
1482545592961866,-0.379684,0.0396707,-0.87597,-18.25,39.8125,-58.625,-0.0844727,-0.414551,0.844238
1482545592978377,-0.395346,0.0445957,-0.900915,-32,39.1875,-61,-0.0556641,-0.492676,0.812988
1482545593000893,-0.410736,0.0469659,-0.929655,-30.875,41.8125,-71,0.019043,-0.474121,0.751953
1482545593021918,-0.419864,0.0474135,-0.961287,-16.5,44.3125,-79.3125,0.0649414,-0.418945,0.750488
1482545593038429,-0.43632,0.0508223,-0.994278,-32.875,50.125,-80.4375,-0.00976563,-0.503418,0.757813
1482545593060935,-0.459619,0.0569619,-1.03001,-49.6875,54.5,-86.375,-0.132324,-0.553223,0.73877
1482545593081949,-0.483945,0.0604736,-1.06969,-49.8125,54.4375,-98.8125,-0.142578,-0.580078,0.70166
1482545593098471,-0.503131,0.0600674,-1.11431,-44.75,59,-112.813,-0.0712891,-0.537598,0.674805
1482545593120987,-0.52503,0.0608069,-1.16164,-52.0625,68.125,-116.75,-0.0566406,-0.568848,0.680664
1482545593142002,-0.548719,0.0649151,-1.2134,-55.5625,84.25,-122.188,-0.166992,-0.625488,0.672852
1482545593158514,-0.57077,0.0674215,-1.2681,-48.75,84.625,-131.313,-0.342285,-0.643555,0.561035
1482545593181030,-0.597296,0.06711,-1.32121,-61.6875,78.1875,-129.813,-0.362305,-0.688965,0.552734
1482545593202044,-0.624116,0.065831,-1.37484,-62.625,81.5625,-129.938,-0.297363,-0.740723,0.611816
1482545593218546,-0.646528,0.0649854,-1.42524,-50.9375,78.875,-120.25,-0.369141,-0.799805,0.680176
1482545593241073,-0.667202,0.0613025,-1.46839,-47.8125,62.0625,-107.938,-0.428711,-0.830566,0.71582
1482545593262086,-0.687824,0.0597237,-1.50551,-34.875,45.875,-97.8125,-0.352539,-0.86377,0.648438
1482545593278599,-0.697763,0.0532685,-1.53617,-12.625,31.1875,-87.5625,-0.244141,-0.774902,0.672363
1482545593301105,-0.709482,0.0475646,-1.5622,-20.3125,26.875,-74,-0.202148,-0.737305,0.655762
1482545593322129,-0.727452,0.0466517,-1.5849,-38.9375,31.4375,-58.25,-0.217285,-0.765625,0.651855
1482545593338646,-0.75191,0.0501804,-1.60587,-57.5,35.625,-48.25,-0.27832,-0.780273,0.62207
1482545593361165,-0.782275,0.0550205,-1.62722,-71.6875,42.0625,-43.125,-0.246094,-0.83252,0.59668
1482545593382172,-0.804678,0.0602255,-1.64638,-52.5625,37.5,-39.4375,-0.29541,-0.797363,0.591309
1482545593399184,-0.823161,0.0649383,-1.66134,-46.4375,28.125,-32.5625,-0.320313,-0.78125,0.651855
1482545593421189,-0.841782,0.0677598,-1.67219,-50.75,17.1875,-27.0625,-0.30127,-0.771484,0.678223
1482545593442214,-0.862422,0.0698791,-1.68178,-58.5,14.5625,-24.9375,-0.29248,-0.78418,0.688477
1482545593457728,-0.884834,0.0720434,-1.69279,-63.375,21.375,-23.8125,-0.226563,-0.80957,0.686523
1482545593481231,-0.911572,0.0755268,-1.70653,-71.875,30.5625,-24.5,-0.225098,-0.852051,0.627441
1482545593503258,-0.933925,0.0810115,-1.71975,-62.25,34.375,-16.8125,-0.20752,-0.844727,0.643555
1482545593517768,-0.950009,0.0866038,-1.72826,-50.3125,23.6875,-9.75,-0.230957,-0.793457,0.673828
1482545593540787,-0.966978,0.0911868,-1.73191,-56.75,10.1875,-5.5625,-0.264648,-0.82373,0.724121
1482545593563303,-0.984021,0.093308,-1.73386,-57.625,4.5,-4.6875,-0.213379,-0.875,0.741699
1482545593577811,-0.994297,0.0945504,-1.73617,-40.25,6.0625,-4.75,-0.169434,-0.888184,0.77002
1482545593600827,-0.996694,0.096274,-1.73672,-19.0625,2.25,-1.75,-0.183105,-0.853027,0.758789
1482545593623844,-1.00037,0.0974552,-1.73334,-20.9375,-9.25,2.125,-0.197754,-0.830078,0.692383
1482545593637844,-1.0049,0.095771,-1.72561,-19.875,-21.625,6.125,-0.126953,-0.893555,0.64502
1482545593660869,-1.00742,0.092855,-1.71729,-12.375,-22.375,8.4375,-0.0576172,-0.943848,0.646973
1482545593683388,-1.00784,0.0911912,-1.7124,-3.75,-11.1875,8.5625,-0.0166016,-0.940918,0.61377
1482545593697896,-1.00897,0.0916444,-1.7114,-2.6875,0.6875,6.3125,-0.0336914,-0.895508,0.54834
1482545593720902,-1.01171,0.0946492,-1.71227,-7.0625,7.375,7.375,-0.0693359,-0.84375,0.522461
1482545593743430,-1.01846,0.0981595,-1.71538,-18.375,12.125,2.8125,-0.112793,-0.808105,0.489746
1482545593764442,-1.02729,0.0992785,-1.71641,-23.9375,2.75,-0.9375,-0.130859,-0.82373,0.481934
1482545593780957,-1.03826,0.0973001,-1.71566,-29.5,-4.1875,-2.625,-0.0795898,-0.878906,0.481445
1482545593803470,-1.04542,0.0929527,-1.71455,-19,-6.9375,-4.8125,-0.0336914,-0.936035,0.514648
1482545593824474,-1.04681,0.090154,-1.71423,-4.375,-3.5625,-4.1875,-0.0551758,-0.90625,0.525879
1482545593841001,-1.04628,0.0888885,-1.71312,1.25,-4.1875,-1.375,-0.0839844,-0.867676,0.500977
1482545593869085,-1.0495,0.0886687,-1.71121,-10.0625,-6.25,0.875,-0.112793,-0.855469,0.496094
1482545593884090,-1.05644,0.0884271,-1.70859,-19.9375,-6.75,2.625,-0.0976563,-0.916504,0.507813
1482545593901103,-1.06094,0.088723,-1.70682,-12.375,-3.9375,3.625,-0.0908203,-0.965332,0.525879
1482545593923121,-1.06122,0.0895746,-1.70697,-0.8125,2.0625,2.875,-0.0859375,-0.972168,0.539551
1482545593944656,-1.05925,0.0904379,-1.7073,5.375,1.375,1.125,-0.102539,-0.881836,0.503418
1482545593960658,-1.05605,0.0918732,-1.70479,6.875,-3.6875,7.3125,-0.0869141,-0.849609,0.50293
1482545593983682,-1.05871,0.0930377,-1.70166,-10.1875,-6.375,6.875,-0.0947266,-0.84668,0.505859
1482545593997698,-1.06353,0.0936903,-1.69879,-14.75,-6.25,5.375,-0.105469,-0.897461,0.501465
1482545594020712,-1.06551,0.0941836,-1.69669,-6.75,-4.375,4.375,-0.0961914,-0.938965,0.529297
1482545594043334,-1.0655,0.0965282,-1.69525,0.0625,-1.75,5.3125,-0.137695,-0.893555,0.48291
1482545594064365,-1.06455,0.0989321,-1.69089,3.625,-9.3125,10.0625,-0.136719,-0.876465,0.45752
1482545594080377,-1.06495,0.100105,-1.68265,-1.75,-19.5625,13,-0.116211,-0.866699,0.444824
1482545594103449,-1.0674,0.0991429,-1.67669,-8.25,-15.5,7.375,-0.0722656,-0.874023,0.475586
1482545594124522,-1.06908,0.0972495,-1.67465,-5.25,-6.5625,-0.25,-0.0717773,-0.899414,0.489258
1482545594148615,-1.06911,0.0960418,-1.67367,0.0625,-2.9375,1,-0.0585938,-0.908691,0.492676
1482545594163626,-1.07055,0.0961162,-1.67508,-4.125,4.6875,0.25,-0.0664063,-0.878418,0.485352
1482545594184737,-1.07439,0.097347,-1.67418,-10.6875,-1.125,3.625,-0.108887,-0.87207,0.463867
1482545594200711,-1.07975,0.0987115,-1.6732,-14.0625,-1.875,2.1875,-0.141602,-0.916504,0.463867
1482545594223707,-1.08175,0.0983708,-1.67334,-3,-0.875,-1.875,-0.116211,-0.945313,0.458984
1482545594244853,-1.07696,0.0971482,-1.67402,13.5,-0.0625,-4.5625,-0.110352,-0.908203,0.491699
1482545594260865,-1.07234,0.0978319,-1.67578,11.375,4.875,-2,-0.116211,-0.841309,0.49707
1482545594283889,-1.07315,0.10024,-1.67848,-3.625,9.1875,0.75,-0.120117,-0.830078,0.483887
1482545594303941,-1.07834,0.103948,-1.68006,-14.5,7.75,5.3125,-0.140625,-0.892578,0.483887
1482545594320898,-1.08326,0.106942,-1.68173,-12.4375,7.1875,3.125,-0.148926,-0.963867,0.486328
1482545594343062,-1.08414,0.108133,-1.68348,1.75,4.6875,-0.5625,-0.140625,-0.973633,0.458496
1482545594364172,-1.07844,0.108275,-1.68394,16.3125,0.8125,-1.8125,-0.133789,-0.906738,0.487793
1482545594388185,-1.07386,0.108529,-1.68318,10.375,-2.0625,0.125,-0.128906,-0.838867,0.492188
1482545594403166,-1.0735,0.109581,-1.6813,0.375,-4,4.4375,-0.128418,-0.884766,0.486816
1482545594426192,-1.07412,0.111612,-1.67954,-1.6875,-1.75,7,-0.124512,-0.930664,0.489258
1482545594441328,-1.07236,0.112473,-1.67801,6.125,-3.0625,4.3125,-0.118164,-0.907227,0.471191
1482545594463207,-1.06749,0.112808,-1.67487,13.75,-7,5.75,-0.0986328,-0.879883,0.470703
1482545594486213,-1.06503,0.111873,-1.67183,5.9375,-7.4375,4.0625,-0.0751953,-0.853516,0.472656
1482545594501229,-1.06579,0.111866,-1.66909,-2.875,-5.1875,6.75,-0.0629883,-0.869629,0.477051
1482545594523251,-1.0687,0.112418,-1.66831,-5.5625,-0.625,4.25,-0.0883789,-0.930664,0.464355
1482545594545872,-1.06785,0.113703,-1.66771,3.375,-0.5,3.6875,-0.126953,-0.904297,0.476074
1482545594560933,-1.06741,0.113246,-1.66777,2.4375,-0.5,-1.5,-0.112305,-0.865234,0.458496
1482545594582948,-1.06926,0.113055,-1.66603,-3.4375,-5.625,1.3125,-0.131836,-0.901367,0.45459
1482545594605965,-1.07077,0.112525,-1.66309,-2.8125,-7.6875,2.9375,-0.110352,-0.922852,0.461426
1482545594620121,-1.07065,0.112087,-1.66066,2.5625,-7.0625,2.9375,-0.109375,-0.921387,0.453613
1482545594642965,-1.06712,0.111408,-1.6589,9,-5.1875,0.8125,-0.109375,-0.881836,0.491211
1482545594665981,-1.06553,0.111986,-1.65594,3.9375,-7.625,3.4375,-0.14209,-0.860352,0.473633
1482545594679960,-1.06788,0.111669,-1.65305,-4.6875,-8.4375,2.6875,-0.12793,-0.900879,0.447754
1482545594703008,-1.06888,0.111771,-1.64799,-1.8125,-13.3125,5.6875,-0.137695,-0.915039,0.455078
1482545594725993,-1.06817,0.111584,-1.64153,1.5625,-17.375,7.6875,-0.124512,-0.880859,0.458496
1482545594740575,-1.06738,0.110467,-1.63608,0.875,-14.3125,6.25,-0.0854492,-0.880859,0.480957
1482545594763266,-1.06676,0.109216,-1.63264,-1.125,-8.875,3.75,-0.0771484,-0.875488,0.510742
1482545594787303,-1.06609,0.109153,-1.632,-0.125,-0.5,2,-0.0795898,-0.849609,0.49707
1482545594800282,-1.06807,0.109943,-1.631,-5.5625,-1.625,3.6875,-0.108398,-0.887207,0.481445
1482545594823306,-1.07288,0.112492,-1.62997,-12.25,-0.625,5.25,-0.160645,-0.909668,0.465332
1482545594845572,-1.07371,0.113489,-1.62934,-0.875,0.5625,5,-0.097168,-0.955566,0.491699
1482545594860582,-1.07298,0.114986,-1.63039,3.5625,4.125,2.0625,-0.121582,-0.890625,0.467285
1482545594883574,-1.07198,0.115258,-1.63174,2.25,4.0625,-0.75,-0.109375,-0.875,0.489258
1482545594905592,-1.07257,0.116057,-1.63224,0.5,2.125,1,-0.125977,-0.918457,0.467773
1482545594920602,-1.06815,0.114821,-1.63451,9.9375,6.6875,-1.875,-0.0419922,-0.87793,0.537109
1482545594943767,-1.06585,0.116073,-1.63358,4.9375,-2.0625,1.4375,-0.152344,-0.78418,0.454102
1482545594965789,-1.06894,0.114639,-1.62909,-9.6875,-12,5.625,-0.0742188,-0.881836,0.477051
1482545594986812,-1.07175,0.111924,-1.62585,-8.5625,-10.1875,-0.125,-0.0737305,-0.916992,0.486816
1482545595003823,-1.06964,0.109607,-1.62361,5.125,-7.75,-0.9375,-0.0869141,-0.922852,0.505859
1482545595025821,-1.06647,0.108243,-1.62247,8.0625,-5.0625,-2.1875,-0.114258,-0.857422,0.486328
1482545595046990,-1.06756,0.10785,-1.62113,-5.125,-4.0625,0.1875,-0.117188,-0.865723,0.503418
1482545595062980,-1.07221,0.108342,-1.62108,-13.125,-0.125,0.3125,-0.131836,-0.914063,0.491211
1482545595085992,-1.0764,0.109641,-1.62109,-9.4375,-0.0625,0.4375,-0.161133,-0.928711,0.459473
1482545595107142,-1.0765,0.109755,-1.62104,0.375,-1,-0.25,-0.140625,-0.924316,0.47168
1482545595123272,-1.07496,0.110029,-1.6204,5.125,-2.0625,0.0625,-0.130859,-0.881836,0.459961
1482545595145933,-1.07327,0.109729,-1.61926,4.125,-3.9375,-0.0625,-0.125,-0.866211,0.47998
1482545595167108,-1.07399,0.109836,-1.61803,-3.875,-3.0625,1.125,-0.119629,-0.868164,0.490723
1482545595183096,-1.07695,0.110362,-1.61808,-6.8125,0.25,1,-0.120605,-0.905762,0.464355
1482545595206110,-1.07984,0.110898,-1.61736,-6.0625,-1.9375,1.6875,-0.128906,-0.933594,0.456055
1482545595227109,-1.08018,0.110754,-1.6151,-0.1875,-6.0625,2.0625,-0.125,-0.921387,0.467773
1482545595243140,-1.07935,0.109922,-1.61243,2.1875,-8.25,1.125,-0.119141,-0.90332,0.469727
1482545595266201,-1.07676,0.107918,-1.61009,4.9375,-7.5625,-0.6875,-0.0878906,-0.882324,0.504395
1482545595287215,-1.07528,0.106347,-1.60826,2.3125,-6,0.0625,-0.0820313,-0.862793,0.490723
1482545595303286,-1.07591,0.105052,-1.60669,-3.8125,-4.75,0.0625,-0.0874023,-0.88623,0.499023
1482545595326317,-1.07623,0.104294,-1.60468,-2,-5.875,0.875,-0.109375,-0.923828,0.505859
1482545595346555,-1.07442,0.103757,-1.60336,2.0625,-4.125,-0.1875,-0.109863,-0.882324,0.522949
1482545595363542,-1.07432,0.102919,-1.60056,-1.5625,-8.5625,1.0625,-0.116211,-0.866699,0.486816
1482545595391580,-1.0758,0.101333,-1.59773,-5.5,-9.3125,-0.125,-0.106445,-0.931152,0.507813
1482545595408585,-1.07334,0.0989508,-1.59549,6.25,-8.8125,-3.6875,-0.115723,-0.957031,0.519043
1482545595423584,-1.06828,0.0966975,-1.59459,13,-6.25,-5.625,-0.127441,-0.932129,0.531738
1482545595446105,-1.06333,0.0953078,-1.59338,13,-5.9375,-3.75,-0.128906,-0.918945,0.524902
1482545595468120,-1.05867,0.0939328,-1.59135,13.0625,-8.25,-3.0625,-0.138184,-0.91748,0.507324
1482545595483138,-1.054,0.0912551,-1.5882,12.6875,-11.3125,-1.6875,-0.0844727,-0.911133,0.519043
1482545595506160,-1.04611,0.0873703,-1.58468,21.5,-13.625,-3.8125,-0.0771484,-0.873047,0.508301
1482545595528679,-1.03709,0.0818663,-1.58059,23.375,-17.6875,-7.0625,-0.0732422,-0.875,0.536133
1482545595542688,-1.02523,0.0759598,-1.57562,32.125,-20.125,-5.875,-0.0551758,-0.878906,0.550293
1482545595565756,-1.01335,0.0712679,-1.57062,33.25,-18.3125,-2.875,-0.0527344,-0.844727,0.519043
1482545595588776,-1.00366,0.0678561,-1.5664,25.8125,-14.3125,-0.1875,-0.0336914,-0.808105,0.532227
1482545595609788,-0.996361,0.064841,-1.5636,19.5625,-9.9375,-0.6875,-0.0292969,-0.845215,0.561523
1482545595625800,-0.987591,0.0625736,-1.56052,22.5,-10.625,-0.375,-0.0595703,-0.846191,0.594238
1482545595647969,-0.979143,0.0592535,-1.55707,22.5,-13,-1.625,-0.0498047,-0.851074,0.588379
1482545595669001,-0.970114,0.05426,-1.55267,25,-18.4375,-4.9375,-0.0566406,-0.849121,0.586426
1482545595685996,-0.959553,0.0487233,-1.5473,27.4375,-21.8125,-4.75,-0.0581055,-0.841797,0.624023
1482545595708100,-0.946438,0.0433023,-1.54062,35.0625,-25.5,-2.5625,-0.0634766,-0.818848,0.623047
1482545595729617,-0.934743,0.0375163,-1.53302,31.9375,-26.25,0.5,-0.0146484,-0.806152,0.603516
1482545595746214,-0.924934,0.0322282,-1.52654,27.8125,-22.1875,1.6875,0.0117188,-0.797363,0.593262
1482545595768211,-0.917636,0.0278727,-1.52119,22.6875,-19.3125,-0.3125,-0.0166016,-0.821289,0.584961
1482545595789242,-0.91069,0.0235539,-1.51442,22.8125,-24.5,0,-0.0629883,-0.815918,0.57373
1482545595813243,-0.900944,0.0161049,-1.50619,30,-33.8125,-4.75,-0.059082,-0.836914,0.616211
1482545595828261,-0.887595,0.00751228,-1.49767,39.8125,-34.125,-3.1875,0,-0.819336,0.628418
1482545595849365,-0.87707,0.00118634,-1.49041,30.75,-25.3125,1.625,0.0458984,-0.746094,0.611816
1482545595865407,-0.874235,-0.00122494,-1.48385,12,-21.6875,3.5,-0.059082,-0.777832,0.57959
1482545595888393,-0.866797,-0.00666358,-1.47454,17.4375,-33.75,1.1875,-0.0649414,-0.80127,0.750488
1482545595910411,-0.850346,-0.00972581,-1.46279,46.875,-35.9375,9.75,-0.0942383,-0.788086,0.699707
1482545595925433,-0.832938,-0.0156657,-1.45077,52.875,-42.0625,4.9375,-0.090332,-0.792969,0.677246
1482545595948561,-0.81262,-0.0221681,-1.43802,57.4375,-42.1875,8.4375,-0.0317383,-0.76416,0.748535
1482545595969605,-0.793595,-0.0285354,-1.42749,51.9375,-37.6875,4.125,-0.0395508,-0.680176,0.738281
1482545595985593,-0.779244,-0.0333242,-1.41868,43.5625,-28.75,7.4375,0.0180664,-0.731934,0.705078
1482545596015607,-0.76184,-0.0376136,-1.41141,49.5625,-21.3125,8.0625,0.0712891,-0.692871,0.743652
1482545596029632,-0.748043,-0.0422685,-1.40333,43.8125,-25.6875,6.9375,0.0336914,-0.713867,0.697754
1482545596045960,-0.738014,-0.0499811,-1.39169,34,-39.125,9.625,0.0483398,-0.709473,0.703125
1482545596067975,-0.723294,-0.0614784,-1.37791,50.1875,-49.75,7.375,0.0791016,-0.794922,0.772949
1482545596088991,-0.703559,-0.0721776,-1.36757,65.4375,-40.0625,3.875,0.116699,-0.745117,0.725586
1482545596106004,-0.685284,-0.0811338,-1.36086,57.4375,-30.875,-1.125,0.0961914,-0.659668,0.724609
1482545596128006,-0.671775,-0.0881249,-1.35193,40,-32.6875,6.6875,0.0683594,-0.586914,0.760742
1482545596149538,-0.664343,-0.0979937,-1.34207,23.25,-38.25,5.9375,0.124512,-0.588867,0.763672
1482545596166045,-0.65938,-0.108456,-1.33257,20.75,-32.375,8.4375,0.240234,-0.637695,0.734375
1482545596188624,-0.650705,-0.116349,-1.32369,33.4375,-28.3125,9.3125,0.193848,-0.63623,0.700195
1482545596216605,-0.641729,-0.123972,-1.31649,31.3125,-26.3125,5.125,0.169922,-0.597168,0.721191
1482545596226611,-0.631853,-0.131847,-1.31101,32.125,-22.25,2.5,0.21875,-0.583008,0.751465
1482545596248628,-0.624715,-0.138035,-1.30485,23.6875,-22.75,5.3125,0.163086,-0.563965,0.759277
1482545596269727,-0.622273,-0.144162,-1.29945,10.625,-22.3125,2.6875,0.155762,-0.578613,0.76709
1482545596285335,-0.618453,-0.14964,-1.29436,16.625,-22.5625,0.9375,0.125977,-0.634277,0.811035
1482545596308376,-0.610341,-0.154829,-1.29049,29.1875,-20.375,-1.75,0.122559,-0.647949,0.813477
1482545596329426,-0.599282,-0.1596,-1.28523,37.6875,-23.0625,1.125,0.0849609,-0.580566,0.759766
1482545596345377,-0.588263,-0.163871,-1.28054,38.125,-20.25,1.375,0.105957,-0.586426,0.764648
1482545596368464,-0.575746,-0.167689,-1.27606,37.75,-19.125,2.875,0.109863,-0.52002,0.803711
1482545596391165,-0.563951,-0.171446,-1.27375,35.875,-9.5625,1.0625,0.215332,-0.530273,0.804199
1482545596405160,-0.553109,-0.171105,-1.2742,31.3125,2.875,0.1875,0.185547,-0.494141,0.789551
1482545596436181,-0.544416,-0.169327,-1.27545,24.6875,4.5,-1.3125,0.130371,-0.483887,0.789063
1482545596452193,-0.537572,-0.167875,-1.27669,21.25,1.875,-3.3125,0.0961914,-0.512695,0.797852
1482545596465237,-0.52891,-0.167057,-1.27713,28.6875,-1.6875,-2.9375,0.0966797,-0.557129,0.846191
1482545596488788,-0.51691,-0.166818,-1.27882,38.6875,5.9375,-3.25,0.219238,-0.589355,0.876465
1482545596510804,-0.502468,-0.163764,-1.28035,35.6875,7.875,-0.0625,0.141113,-0.428711,0.931641
1482545596524816,-0.493527,-0.159876,-1.28063,17.3125,3.0625,2.625,0.0571289,-0.381836,0.955078
1482545596548808,-0.487953,-0.155465,-1.28039,11.9375,5.375,3.875,0.0917969,-0.478027,1.02295
1482545596570853,-0.476396,-0.149203,-1.28129,32.4375,12.4375,3.875,0.117188,-0.564941,1.10645
1482545596584656,-0.45879,-0.138639,-1.27997,49.8125,21.9375,15.5,0.121582,-0.541504,1.13574
1482545596608648,-0.440602,-0.122398,-1.2731,50.1875,26.6875,35.0625,0.0458984,-0.456055,1.10693
1482545596630662,-0.428888,-0.102754,-1.25989,32.3125,28.375,55.375,0.012207,-0.397949,1.06885
1482545596651673,-0.428298,-0.0808183,-1.24307,7.9375,27.4375,64.9375,-0.0673828,-0.477051,0.981445
1482545596668696,-0.426056,-0.0612082,-1.22455,15.5,17.9375,66,-0.111328,-0.518066,0.955566
1482545596691203,-0.412512,-0.0442689,-1.20513,46.5,17.3125,68.0625,-0.0219727,-0.495117,0.956543
1482545596712218,-0.392555,-0.027499,-1.18586,56.5,23.6875,70.625,0.0498047,-0.344727,0.935059
1482545596728229,-0.37824,-0.00968202,-1.16623,40,24.875,70.5625,-0.0126953,-0.320313,0.887695
1482545596750245,-0.369648,0.00746986,-1.14528,25.9375,20.375,72.625,-0.0571289,-0.368164,0.899414
1482545596771766,-0.359218,0.020677,-1.12497,31,14,67.25,-0.0322266,-0.357422,0.864258
1482545596788064,-0.348937,0.0323897,-1.10431,29.6875,9.3125,67.125,-0.0517578,-0.336426,0.865723
1482545596811083,-0.341988,0.0445892,-1.08297,20.9375,8.75,68.125,-0.0927734,-0.36377,0.87207
1482545596832111,-0.338059,0.0572461,-1.05939,11.5625,8.1875,74.375,-0.112305,-0.364258,0.877441
1482545596848107,-0.333325,0.0706358,-1.03433,11.3125,8.9375,79,-0.125,-0.36377,0.944824
1482545596872626,-0.327399,0.0846319,-1.00774,12.625,8.25,83.25,-0.162598,-0.349121,0.966797
1482545596892158,-0.321817,0.0957359,-0.979217,11.6875,-1,86.0625,-0.174316,-0.364746,0.964355
1482545596908153,-0.315782,0.101396,-0.948978,10.6875,-18.5625,84.5625,-0.205078,-0.340332,0.946289
1482545596931180,-0.308581,0.100349,-0.920931,14.5,-29.75,74.5625,-0.140625,-0.34082,0.983398
1482545596952201,-0.303765,0.0997832,-0.895576,5.1875,-20.4375,69.3125,-0.0615234,-0.286621,0.974121
1482545596968727,-0.301099,0.0986574,-0.871323,-3.1875,-22.0625,65.125,-0.0683594,-0.228027,0.925293
1482545596990856,-0.303055,0.0953547,-0.849178,-15.9375,-25.3125,57.9375,-0.0537109,-0.236328,0.939453
1482545597011899,-0.308791,0.087292,-0.829662,-17.6875,-38.9375,46.625,-0.0874023,-0.344727,0.911621
1482545597027891,-0.312261,0.0747809,-0.814548,-4.1875,-47.375,30.875,-0.0737305,-0.436523,0.910645
1482545597050901,-0.305045,0.0599581,-0.803805,27,-44.4375,18.3125,0.0200195,-0.411133,0.913086
1482545597071989,-0.291541,0.0451829,-0.798192,42.0625,-36.125,6.1875,0.0927734,-0.339844,0.918945
1482545597088085,-0.279992,0.0311384,-0.793134,33.5,-28.625,6.5625,0.174316,-0.288574,0.945801
1482545597111101,-0.27447,0.0208553,-0.789245,18.6875,-14.25,7.4375,0.237793,-0.306641,0.915039
1482545597132131,-0.270393,0.0142326,-0.78751,14.25,-2.375,4.5625,0.237793,-0.29248,0.913086
1482545597148128,-0.26844,0.00988996,-0.78721,6.125,4.75,2.125,0.240723,-0.256348,0.902832
1482545597171150,-0.2723,0.00673279,-0.788886,-6.5,8.8125,-2.1875,0.234375,-0.320801,0.914063
1482545597191695,-0.278851,0.00514978,-0.791187,-13.4375,13.4375,-3.25,0.233398,-0.34082,0.914551
1482545597207679,-0.28303,0.0070364,-0.791985,-1.3125,21.25,4,0.219727,-0.428711,0.925781
1482545597230694,-0.281399,0.0115907,-0.789044,12.0625,18.8125,14.0625,0.118164,-0.366699,0.88623
1482545597251708,-0.27724,0.0138119,-0.784584,15.1875,9.25,16.1875,0.0849609,-0.291016,0.848145
1482545597267723,-0.271083,0.0135044,-0.777865,20.8125,1.5625,20.375,0.101074,-0.289551,0.86377
1482545597290278,-0.263093,0.0122541,-0.770707,26.9375,-1,21.1875,0.105469,-0.308594,0.899414
1482545597313294,-0.254945,0.0128922,-0.763261,29.875,4.875,23.125,0.113281,-0.337891,0.918945
1482545597327306,-0.244267,0.0154233,-0.75795,33.8125,10.4375,18.4375,0.0883789,-0.283691,0.927734
1482545597350321,-0.227138,0.0221908,-0.75344,48.625,22,18.6875,0.0668945,-0.229492,0.994141
1482545597373364,-0.213018,0.0290286,-0.747512,34.75,15.625,20.75,-0.0239258,-0.132324,0.975098
1482545597387812,-0.209523,0.0335009,-0.738717,5.625,8,27.1875,-0.0200195,-0.156738,0.969238
1482545597410828,-0.208924,0.0374936,-0.731244,3,7.875,23.75,-0.0273438,-0.243652,1.01514
1482545597432828,-0.202764,0.0444493,-0.724171,20.3125,9.0625,22.875,-0.131836,-0.258789,1.00488
1482545597447888,-0.194628,0.05052,-0.718445,24.1875,3.4375,17.375,-0.203613,-0.219238,1.01074
1482545597470967,-0.180581,0.0512771,-0.710742,38.125,-9.625,20.5,-0.162109,-0.169922,0.997559
1482545597493613,-0.165099,0.0485069,-0.69979,39.4375,-18.25,28.1875,-0.125977,-0.123047,1.03271
1482545597507611,-0.152972,0.0424101,-0.689383,30.9375,-30.5625,25.375,-0.167969,-0.128418,1.04297
1482545597530712,-0.141358,0.0331199,-0.678135,30.5,-36.1875,27,-0.10791,-0.119629,1.00586
1482545597553741,-0.128436,0.0232064,-0.668243,35.625,-34.625,23.875,-0.0605469,-0.123535,1.04053
1482545597574879,-0.114654,0.0109436,-0.660326,36.375,-39.1875,17.9375,-0.03125,-0.074707,0.958008
1482545597590644,-0.103897,-0.00438876,-0.655757,27.875,-40.3125,8.8125,0.0693359,-0.0664063,1.00781
1482545597613699,-0.0976507,-0.0173989,-0.653885,17.0625,-28.4375,2.4375,0.148926,-0.0844727,0.991699
1482545597634679,-0.0947152,-0.02604,-0.65065,8.125,-16.1875,7.6875,0.157715,-0.0859375,0.958496
1482545597650688,-0.0925583,-0.0309165,-0.646839,10.3125,-5.5625,10.5,0.165527,-0.13916,0.933105
1482545597673763,-0.0890713,-0.0324751,-0.6447,11,-3.625,5.4375,0.0473633,-0.0893555,0.859375
1482545597694007,-0.085722,-0.0332321,-0.64896,6.5625,2.75,-11.75,0.0834961,-0.0361328,0.862793
1482545597710966,-0.0880672,-0.0338783,-0.656405,-10.1875,3.3125,-20.9375,0.0742188,-0.0336914,0.83252
1482545597732981,-0.0943247,-0.0348025,-0.67007,-18.5,3.875,-38.9375,0.0791016,-0.103027,0.959473
1482545597753995,-0.110013,-0.03332,-0.679093,-43.8125,9.5625,-25,0.0673828,-0.123535,0.84668
1482545597771018,-0.126178,-0.0346524,-0.684913,-38.8125,2,-17.125,0.081543,-0.222656,0.84668
1482545597793534,-0.133182,-0.0358021,-0.685924,-11.8125,0.5625,-3.3125,0.0844727,-0.244141,0.916992
1482545597814548,-0.132955,-0.0328786,-0.689755,4.5,7.9375,-9.875,0.00830078,-0.194336,0.992188
1482545597830569,-0.124461,-0.0248663,-0.697317,19.625,19.8125,-19.125,-0.0566406,-0.0761719,1.08496
1482545597853576,-0.122292,-0.0171087,-0.704235,-3.6875,15.75,-18,-0.107422,-0.00195313,1.09521
1482545597874596,-0.130699,-0.0125252,-0.708319,-31.3125,6.4375,-10.75,-0.103027,-0.0307617,1.00195
1482545597891152,-0.146103,-0.0100845,-0.709303,-42.1875,2.1875,-2.6875,-0.0629883,-0.181641,1.05225
1482545597913668,-0.154867,-0.00629224,-0.711109,-18.1875,7.9375,-4.0625,-0.0439453,-0.274414,1.09521
1482545597934686,-0.148291,-0.00132321,-0.713891,20,8.3125,-7.125,-0.100098,-0.168945,1.02881
1482545597951215,-0.139252,-0.000798501,-0.715394,17.25,-4.5625,-4.75,-0.0913086,-0.0175781,1.00928
1482545597973232,-0.141048,-0.00577818,-0.71535,-10.6875,-20.25,-2.875,-0.0839844,-0.0654297,1.00684
1482545597994251,-0.146338,-0.0118895,-0.714803,-14.4375,-14.1875,-0.375,0.0620117,-0.167969,1.06836
1482545598011279,-0.146068,-0.0152739,-0.712438,4.6875,-6.6875,5.5,0.0722656,-0.209473,1.04004
1482545598033277,-0.139429,-0.0175392,-0.709426,20.625,-4.875,8.25,0.0576172,-0.163086,1.03223
1482545598054070,-0.130378,-0.0182212,-0.705596,23.625,-2.875,10.75,0.0258789,-0.0991211,1.02979
1482545598071022,-0.122369,-0.0192943,-0.701389,22.625,-2.3125,11.8125,0.0517578,-0.127441,1.0791
1482545598093033,-0.116146,-0.0219415,-0.696872,16.125,-8.1875,12.0625,0.0366211,-0.0864258,0.973145
1482545598114191,-0.111718,-0.026153,-0.692045,14.625,-12.375,12.25,0.0390625,-0.130859,0.972168
1482545598131138,-0.109087,-0.0279911,-0.688685,8.625,-6.1875,8.875,0.0302734,-0.118652,0.938965
1482545598153192,-0.111545,-0.0283497,-0.686476,-6.25,-4.4375,5.9375,-0.0136719,-0.105957,0.908203
1482545598174206,-0.11275,-0.0297244,-0.68708,-4.375,-1.8125,-1.9375,0.0541992,-0.0922852,0.922363
1482545598190220,-0.118541,-0.0306291,-0.688996,-17.25,-2.875,-5.9375,0.0180664,-0.103027,0.902832
1482545598213208,-0.123642,-0.0327178,-0.68891,-9.3125,-4.375,-0.25,0.0537109,-0.191406,0.945313
1482545598234803,-0.123353,-0.0338898,-0.688593,5,-0.8125,0.5,0.0693359,-0.177734,0.953613
1482545598250881,-0.119491,-0.0326636,-0.687064,11,3.3125,4.8125,0.0380859,-0.112793,0.952637
1482545598272882,-0.11592,-0.0310025,-0.685203,6.9375,6.3125,6,0.0629883,-0.0673828,1.0127
1482545598295913,-0.118134,-0.0284295,-0.685347,-10.75,9.75,0.875,0.0595703,-0.0566406,0.974121
1482545598310911,-0.122854,-0.0264906,-0.685499,-13.875,6.6875,0.5625,0.0458984,-0.115234,0.992676
1482545598333431,-0.12396,-0.0248364,-0.685836,-0.8125,6.125,-0.6875,0.0449219,-0.164551,1.02197
1482545598356054,-0.118962,-0.0228658,-0.68708,11.9375,6.25,-2.6875,0.0263672,-0.0888672,1.04834
1482545598371069,-0.11685,-0.0215292,-0.688161,1.25,5.6875,-2.4375,0.0419922,-0.0566406,1.0166
1482545598393078,-0.121545,-0.0201235,-0.690656,-19.3125,7.3125,-5.9375,0.0566406,-0.0415039,1.02002
1482545598416093,-0.131484,-0.01823,-0.69234,-28.5625,8,-3.875,0.0473633,-0.127441,0.968262
1482545598437110,-0.138391,-0.0153529,-0.693527,-15.6875,8.5,-2.5625,0.0107422,-0.198242,0.999023
1482545598453623,-0.136456,-0.0115169,-0.696991,5.1875,11.6875,-8.375,0.0078125,-0.138672,1.0127
1482545598483644,-0.134675,-0.00953459,-0.702171,1.625,7.9375,-13.9375,0.00927734,-0.0859375,1.00293
1482545598489648,-0.138717,-0.00877715,-0.707412,-16.875,7.8125,-13.9375,0.0625,-0.0664063,1.00537
1482545598513678,-0.146934,-0.00697381,-0.712405,-21.625,10.4375,-13,0.0566406,-0.177246,0.983398
1482545598535712,-0.153012,-0.00387953,-0.715809,-14.375,10.3125,-8.1875,0.00488281,-0.192871,0.980957
1482545598556732,-0.155713,-0.0011586,-0.719876,-5.6875,11.375,-10.25,0.027832,-0.183594,0.949707
1482545598572732,-0.160282,0.00204092,-0.72707,-9.5,17.8125,-17.9375,0.0786133,-0.190918,0.885742
1482545598596765,-0.172442,0.00708258,-0.738284,-28.5,33,-27,0.188477,-0.227051,0.769531
1482545598616820,-0.196343,0.018811,-0.750146,-54.5625,59.6875,-23.3125,0.285156,-0.334473,0.701172
1482545598633392,-0.224651,0.0407723,-0.762115,-65.375,84.4375,-16.4375,0.204102,-0.361816,0.638184
1482545598655513,-0.254529,0.0685347,-0.776242,-72.9375,92,-18.875,0.0317383,-0.314453,0.630859
1482545598676544,-0.293447,0.0978867,-0.793702,-97.125,94.375,-24.0625,-0.0673828,-0.352051,0.661621
1482545598693542,-0.334121,0.128496,-0.816064,-106.563,103.375,-33.375,-0.0844727,-0.41748,0.689453
1482545598715568,-0.36885,0.15845,-0.844221,-85.875,108.313,-45.0625,-0.114258,-0.438965,0.752441
1482545598737149,-0.401946,0.185178,-0.877208,-77.9375,105.875,-57.25,-0.168945,-0.402832,0.823242
1482545598752936,-0.445383,0.204574,-0.913489,-103.875,91.4375,-70.625,-0.253418,-0.383789,0.777832
1482545598775929,-0.496397,0.217167,-0.952411,-122.938,81.5625,-81,-0.205566,-0.446289,0.817871
1482545598796955,-0.551843,0.226044,-0.99118,-132.375,77.0625,-79.75,-0.159668,-0.632324,0.801758
1482545598814967,-0.603203,0.228249,-1.03537,-118.063,72.9375,-99.6875,-0.232422,-0.676758,0.894531
1482545598835985,-0.649608,0.228725,-1.08203,-102.625,77.625,-104.75,-0.226563,-0.662109,0.882813
1482545598857071,-0.693563,0.228861,-1.12833,-97.25,80.875,-101.188,-0.280273,-0.616699,0.878418
1482545598873080,-0.741967,0.227962,-1.17633,-108.688,86.625,-102.563,-0.224609,-0.671387,0.82959
1482545598896099,-0.791012,0.225644,-1.22555,-108.563,90.75,-103.563,-0.229492,-0.79541,0.785645
1482545598917113,-0.836355,0.222327,-1.27352,-98.625,89.1875,-100.313,-0.381836,-0.891113,0.733398
1482545598932124,-0.872542,0.215973,-1.32117,-74.25,86.125,-104.125,-0.476563,-0.846191,0.716797
1482545598956153,-0.901693,0.206897,-1.36878,-55.8125,84.8125,-107.188,-0.416016,-0.78418,0.678711
1482545598977173,-0.92847,0.192872,-1.41372,-52,73.8125,-111.938,-0.422852,-0.805176,0.65625
1482545598993242,-0.955837,0.17649,-1.45608,-56.625,65.25,-112.875,-0.533691,-0.883789,0.650391
1482545599017245,-0.976315,0.159888,-1.49726,-39.9375,65.3125,-110.438,-0.537598,-0.887207,0.649902
1482545599037265,-0.991446,0.144828,-1.53821,-26,70,-104.125,-0.425293,-0.835938,0.598633
1482545599053271,-1.00706,0.135591,-1.57456,-29.75,63.4375,-92,-0.377441,-0.868164,0.528809
1482545599076299,-1.02651,0.129298,-1.604,-39.9375,50.625,-75.5625,-0.412109,-0.911621,0.474121
1482545599096853,-1.04928,0.124322,-1.62844,-44.8125,42,-62.4375,-0.39502,-1.03906,0.40332
1482545599112829,-1.06089,0.120326,-1.64675,-20.75,30.625,-50.25,-0.370117,-0.958008,0.428223
1482545599135844,-1.0684,0.116956,-1.65819,-14.125,17.5625,-34.875,-0.294922,-0.925781,0.449219
1482545599156964,-1.07616,0.11406,-1.66347,-16.5625,4.0625,-22.9375,-0.262207,-0.969727,0.463867
1482545599173018,-1.08194,0.111341,-1.66431,-13.375,-5.3125,-14.0625,-0.227051,-1.00146,0.478516
1482545599196035,-1.08075,0.111622,-1.66063,3.625,-13.125,-2.3125,-0.244629,-0.924805,0.471191
1482545599218050,-1.07908,0.114037,-1.65264,3.25,-21.625,8.5625,-0.251465,-0.880371,0.459961
1482545599241066,-1.08079,0.115718,-1.64115,-10.5,-30.4375,11.8125,-0.240234,-0.866211,0.48584
1482545599256078,-1.08803,0.116273,-1.62987,-22.6875,-30.5625,11.8125,-0.20166,-0.970703,0.481934
1482545599278595,-1.09279,0.118912,-1.62118,-14.8125,-22.5,10.625,-0.242676,-0.907715,0.442871
1482545599292618,-1.0976,0.123735,-1.61256,-15.4375,-18.8125,16.9375,-0.225586,-0.886719,0.432617
1482545599317659,-1.10387,0.128361,-1.60469,-21.625,-15.5625,18.6875,-0.184082,-0.868164,0.44873
1482545599338663,-1.11238,0.131427,-1.59913,-27.5,-10.75,13.875,-0.145996,-0.876465,0.455078
1482545599352673,-1.12074,0.132581,-1.59543,-28.625,-7.625,7.25,-0.137695,-0.892578,0.479492
1482545599376218,-1.12735,0.131492,-1.59307,-22.375,-6.75,1.125,-0.121582,-0.950684,0.491211
1482545599398236,-1.13182,0.12867,-1.59187,-16,-4.8125,-3.75,-0.104004,-0.97998,0.499512
1482545599422253,-1.13373,0.125006,-1.59086,-8.3125,-6,-6.0625,-0.0947266,-0.932617,0.47998
1482545599436286,-1.13491,0.121315,-1.58843,-7.5,-8.625,-3.25,-0.0727539,-0.918457,0.477051
1482545599458362,-1.13749,0.11892,-1.58287,-9.5625,-16.4375,1.375,-0.100098,-0.90625,0.416504
1482545599480993,-1.13996,0.117642,-1.57554,-8.5,-20.1875,6.125,-0.11084,-0.94043,0.415527
1482545599496004,-1.14224,0.114153,-1.57092,-7.75,-14.25,0.875,-0.0561523,-0.996094,0.453613
1482545599518017,-1.14171,0.112741,-1.56959,3.6875,-5,-1,-0.107422,-1.01318,0.420898
1482545599539082,-1.13273,0.112463,-1.56872,26.8125,-3.625,-1.25,-0.146484,-0.955566,0.427246
1482545599556094,-1.12536,0.111879,-1.56741,18.4375,-4.75,-1.8125,-0.137207,-0.845215,0.4375
1482545599578686,-1.12776,0.113086,-1.56565,-10.3125,-4.625,1.125,-0.169434,-0.837891,0.441406
1482545599583390,-1.13637,0.114838,-1.56267,-21.8125,-7.1875,5.875,-0.153809,-0.959473,0.38623
1482545599606391,-1.14227,0.117587,-1.55823,-12.5,-9.4375,10.9375,-0.152344,-1.01318,0.37207
1482545599628445,-1.14215,0.119926,-1.55461,3.625,-7.8125,9.25,-0.150879,-0.966309,0.369629
1482545599643524,-1.13923,0.120225,-1.55364,8.8125,-2.125,2.5,-0.10791,-0.895508,0.397949
1482545599666645,-1.13991,0.120767,-1.55293,-1.75,-0.9375,2.3125,-0.117188,-0.880371,0.397949
1482545599681400,-1.14342,0.122938,-1.55179,-10.625,-2,3.875,-0.172363,-0.914551,0.420898
1482545599703566,-1.14864,0.124094,-1.55057,-14.5,-2.1875,3.875,-0.143555,-0.964355,0.419434
1482545599721540,-1.14862,0.122423,-1.54945,-1.625,-2.875,0.625,-0.0668945,-0.943359,0.444824
1482545599741594,-1.14362,0.120641,-1.54899,10.5,-1.1875,-0.375,-0.0610352,-0.904785,0.46582
1482545599765095,-1.13979,0.120193,-1.5489,7.375,-0.4375,-1,-0.122559,-0.896973,0.469238
1482545599781965,-1.13744,0.119239,-1.54791,3.6875,-3.25,-1.5625,-0.12207,-0.939941,0.472656
1482545599800965,-1.1339,0.116849,-1.54763,9.0625,-2.875,-3.875,-0.0986328,-0.974121,0.477051
1482545599824033,-1.12933,0.115971,-1.54701,13.0625,-2.3125,-1.1875,-0.122559,-1.00684,0.466309
1482545599846051,-1.12325,0.115556,-1.54456,18.75,-8.125,-0.4375,-0.161133,-0.956055,0.423828
1482545599861062,-1.11395,0.112077,-1.54173,23.875,-10.1875,-3.0625,-0.0717773,-0.878906,0.46582
1482545599884145,-1.10787,0.107849,-1.53956,15.9375,-9.25,-4.8125,-0.0527344,-0.879395,0.445801
1482545599906134,-1.1017,0.105616,-1.53657,16.0625,-9.9375,-0.9375,-0.0908203,-0.891602,0.466797
1482545599921116,-1.09811,0.104678,-1.53541,9.375,-3.1875,1.25,-0.0703125,-0.881836,0.458984
1482545599944153,-1.09759,0.106212,-1.53495,1.6875,2.5625,7.5625,-0.059082,-0.900391,0.452637
1482545599966682,-1.0986,0.107564,-1.53664,-1.875,7.4375,4.1875,-0.0620117,-0.900391,0.45459
1482545599980825,-1.09922,0.108682,-1.5387,-1.1875,6.0625,-0.8125,-0.124023,-0.887695,0.451172
1482545600003876,-1.10063,0.110838,-1.54003,-3.4375,4.875,1.4375,-0.144531,-0.868652,0.438965
1482545600025889,-1.10257,0.1116,-1.5398,-5.3125,0.4375,2.125,-0.112305,-0.868652,0.435059
1482545600040899,-1.10832,0.113277,-1.54025,-14.6875,2.375,3.0625,-0.12793,-0.891602,0.418945
1482545600063916,-1.11276,0.113353,-1.54159,-9.25,3.5625,-0.8125,-0.109863,-0.97168,0.428711
1482545600086254,-1.11173,0.111998,-1.5439,4,4.3125,-6.0625,-0.108398,-0.924805,0.45459
1482545600101265,-1.10903,0.113735,-1.54668,5.625,8.125,-2.375,-0.165039,-0.86084,0.468262
1482545600123280,-1.11216,0.118081,-1.54952,-10.3125,10.625,3,-0.184082,-0.826172,0.448242
1482545600146296,-1.12241,0.122612,-1.55241,-30.0625,10.8125,2.5,-0.20166,-0.863281,0.44043
1482545600161308,-1.13194,0.124432,-1.55322,-25,1.5,-1.3125,-0.211914,-0.930664,0.403809
1482545600183186,-1.13603,0.123742,-1.55307,-9.3125,-3.5,-5.3125,-0.194824,-0.991699,0.42627
1482545600207189,-1.13358,0.122058,-1.55272,6.875,-4.1875,-7,-0.171387,-0.92627,0.428223
1482545600222214,-1.13025,0.119972,-1.55284,8.625,-1.5625,-4.3125,-0.0986328,-0.871094,0.425781
1482545600243312,-1.13473,0.118907,-1.55317,-12.875,-0.25,-3.1875,-0.116211,-0.892578,0.415527
1482545600266389,-1.14352,0.11877,-1.55219,-24.0625,-1.8125,3.8125,-0.0791016,-0.976563,0.42334
1482545600282989,-1.15004,0.115519,-1.55258,-18.0625,0.125,-2.5,-0.0297852,-1.00586,0.439453
1482545600310994,-1.15038,0.113887,-1.55428,-1.3125,4.6875,-2.0625,-0.0546875,-0.980469,0.452148
1482545600326019,-1.15147,0.114716,-1.55651,0.0625,6.6875,0.75,-0.109375,-0.988281,0.407715
1482545600341029,-1.14739,0.116701,-1.55632,8.625,2.125,4.75,-0.124023,-0.89502,0.447754
1482545600364046,-1.14731,0.116874,-1.5568,-2.1875,2.0625,0.875,-0.0922852,-0.858887,0.426758
1482545600386162,-1.14886,0.115576,-1.55753,-5.6875,1.5,-2.1875,-0.0874023,-0.947266,0.448242
1482545600401254,-1.1486,0.114515,-1.559,1.25,3.25,-3.0625,-0.104004,-0.967285,0.434082
1482545600423292,-1.14465,0.11444,-1.56002,10.1875,2.0625,-2.4375,-0.128906,-0.908691,0.437988
1482545600446260,-1.14176,0.11357,-1.56049,7.6875,-0.125,-3.5,-0.125,-0.884766,0.415039
1482545600461264,-1.14264,0.115207,-1.56059,-2.25,0,-0.4375,-0.1875,-0.916504,0.411621
1482545600483832,-1.14533,0.117314,-1.55969,-5.5625,-1.6875,2.4375,-0.18457,-0.954102,0.394043
1482545600505843,-1.14643,0.119952,-1.55771,-0.5,-4.5,4.75,-0.200195,-0.962891,0.379883
1482545600520854,-1.14474,0.122403,-1.55393,5.4375,-9.5625,5.8125,-0.202637,-0.928223,0.38916
1482545600543871,-1.14156,0.122678,-1.55023,7.875,-9.375,5,-0.121094,-0.888184,0.40625
1482545600566396,-1.14031,0.123745,-1.54736,2.4375,-5.6875,6.75,-0.106934,-0.868164,0.399414
1482545600584398,-1.14223,0.125254,-1.54595,-5.1875,-2.5,4.5,-0.145996,-0.903809,0.400879
1482545600603913,-1.14401,0.125444,-1.54453,-4.9375,-3.8125,1.75,-0.133789,-0.927246,0.407715
1482545600626454,-1.14417,0.124336,-1.54382,-0.1875,-2.125,0.75,-0.0859375,-0.942383,0.425293
1482545600641467,-1.14376,0.124231,-1.54214,0.375,-3.8125,3.0625,-0.109375,-0.938965,0.424805
1482545600663577,-1.14311,0.124064,-1.53964,1.0625,-6.375,3.5625,-0.109375,-0.941895,0.430664
1482545600686581,-1.14246,0.124419,-1.53693,-0.3125,-5.3125,6.0625,-0.0981445,-0.950195,0.450195
1482545600700651,-1.14023,0.125482,-1.53522,5.9375,-3.125,5.25,-0.129883,-0.95166,0.433105
1482545600723720,-1.13625,0.12502,-1.53578,9.125,2.0625,0.125,-0.0922852,-0.895508,0.456055
1482545600745841,-1.13548,0.124834,-1.53668,2.125,2.9375,0,-0.0996094,-0.905273,0.431641
1482545600762863,-1.13491,0.125131,-1.53771,1.5,3.0625,-0.625,-0.131836,-0.934082,0.438965
1482545600783878,-1.13219,0.124559,-1.53861,7.6875,2.1875,-1.1875,-0.108887,-0.926758,0.442383
1482545600805881,-1.12953,0.123598,-1.54155,8.75,7.3125,-4.75,-0.105957,-0.941406,0.438477
1482545600822892,-1.12742,0.124246,-1.54367,6.75,5.875,-1,-0.131348,-0.915527,0.439941
1482545600843999,-1.12532,0.124981,-1.54437,6.75,2.5,0.8125,-0.126953,-0.88916,0.414063
1482545600866018,-1.12634,0.126035,-1.54379,-1.875,-0.6875,2.875,-0.137207,-0.902344,0.409668
1482545600883032,-1.12701,0.126183,-1.54254,-0.625,-3.125,2.6875,-0.117188,-0.942871,0.42041
1482545600904055,-1.12547,0.12565,-1.54123,5.125,-3.4375,1.25,-0.113281,-0.919922,0.422363
1482545600926063,-1.12186,0.12504,-1.54079,5.625,-1.3125,-1.5,-0.125488,-0.866699,0.487305
1482545600944080,-1.12175,0.123588,-1.5413,1.4375,-0.25,-3.375,-0.101563,-0.843262,0.390625
1482545600964108,-1.12701,0.12211,-1.54083,-12.25,-3.1875,-2.3125,-0.116211,-0.941406,0.397461
1482545600986168,-1.13027,0.122053,-1.54057,-3.4375,-1.5625,0.125,-0.134277,-1.0127,0.384277
1482545601004218,-1.12531,0.121683,-1.54004,12.625,-1.75,-0.6875,-0.132324,-0.90625,0.452637
1482545601023207,-1.1224,0.121923,-1.54061,6.9375,1.3125,-1,-0.125,-0.812988,0.418945
1482545601049211,-1.12472,0.121211,-1.54071,-9.0625,0.5625,-0.75,-0.0947266,-0.869629,0.454102
1482545601062794,-1.12836,0.121187,-1.53952,-10.3125,-2.9375,1.875,-0.121582,-0.958008,0.445801
1482545601083649,-1.12799,0.120562,-1.53868,1.6875,-2.8125,-0.1875,-0.125,-0.97998,0.449219
1482545601106623,-1.12317,0.119134,-1.53908,10.5625,-0.0625,-3.4375,-0.110352,-0.898438,0.481445
1482545601123652,-1.12014,0.119204,-1.53969,4.875,1.1875,-2.625,-0.141602,-0.844238,0.474121
1482545601143666,-1.12338,0.118336,-1.53968,-12.6875,-0.5,-1.6875,-0.111816,-0.896484,0.482422
1482545601166202,-1.12647,0.116204,-1.54104,-10.25,1.375,-6.375,-0.10791,-0.942383,0.476074
1482545601183783,-1.12631,0.114697,-1.54222,0.1875,-0.0625,-7.875,-0.162109,-0.947754,0.466797
1482545601203803,-1.12425,0.113075,-1.54082,5.875,-6.125,-4.0625,-0.141602,-0.941895,0.436523
1482545601225812,-1.12221,0.11143,-1.53769,4.6875,-9.8125,-0.125,-0.110352,-0.930664,0.447754
1482545601243828,-1.12065,0.1098,-1.535,3.4375,-8.9375,-0.375,-0.110352,-0.918457,0.449707
1482545601263865,-1.11914,0.107771,-1.53364,3.4375,-5.1875,-1.1875,-0.0737305,-0.928223,0.460938
1482545601286030,-1.11656,0.107216,-1.53342,6.8125,-0.875,-1.625,-0.11377,-0.919922,0.453125
1482545601304045,-1.11532,0.108659,-1.53261,4.8125,-1.3125,3.125,-0.135254,-0.928223,0.429199
1482545601324046,-1.11451,0.109829,-1.53205,3.8125,-0.4375,3.625,-0.117188,-0.916504,0.42627
1482545601346079,-1.11361,0.110517,-1.53233,3.6875,1.9375,2.6875,-0.0932617,-0.921387,0.43457
1482545601364106,-1.10948,0.110467,-1.53378,13.875,4.4375,-0.375,-0.0898438,-0.932617,0.4375
1482545601383617,-1.10581,0.109724,-1.53558,11.5,4.25,-2.4375,-0.0800781,-0.872559,0.432617
1482545601406174,-1.1064,0.108828,-1.53789,0.1875,5,-4.4375,-0.0976563,-0.931152,0.446777
1482545601424185,-1.10328,0.107041,-1.54154,8.875,8.0625,-6.875,-0.081543,-0.956543,0.501953
1482545601443257,-1.09464,0.106652,-1.54595,23.75,11.5625,-6.375,-0.101563,-0.904785,0.500977
1482545601466310,-1.08742,0.108199,-1.55116,18.6875,15.0625,-3.875,-0.116699,-0.816406,0.486816
1482545601490424,-1.0897,0.107847,-1.556,-5.375,12.6875,-5.25,-0.0771484,-0.891602,0.476074
1482545601504946,-1.09076,0.10764,-1.5595,-0.875,9.6875,-2.9375,-0.0874023,-1.00146,0.5
1482545601525986,-1.08195,0.108166,-1.56263,25.875,9.0625,-1.75,-0.0961914,-0.935059,0.499512
1482545601548977,-1.07327,0.108537,-1.56402,24.875,3.4375,-2.25,-0.128906,-0.893066,0.494629
1482545601563987,-1.06598,0.108284,-1.56516,20.5,1.4375,-4.25,-0.142578,-0.859863,0.487305
1482545601586528,-1.06044,0.106767,-1.56715,15.9375,1,-9.875,-0.154785,-0.836914,0.479492
1482545601608588,-1.05743,0.104553,-1.56862,9.9375,-0.8125,-10.1875,-0.149902,-0.871582,0.472656
1482545601623593,-1.05502,0.100732,-1.56651,6.8125,-12.1875,-8.5625,-0.136719,-0.878906,0.485352
1482545601645609,-1.05201,0.0955126,-1.56052,6.625,-21.4375,-3.5625,-0.0791016,-0.891602,0.516113
1482545601668626,-1.0465,0.0894819,-1.55583,15.9375,-19.5625,-6.4375,-0.0678711,-0.924316,0.516602
1482545601683682,-1.03854,0.0843512,-1.55613,26.0625,-6.8125,-12.875,-0.0922852,-1.00098,0.53125
1482545601705767,-1.02004,0.0794864,-1.56475,46.375,17.875,-18.875,0.00976563,-0.867676,0.682129
1482545601729745,-1.00284,0.0832214,-1.57723,40.5,34.0625,-14.75,-0.147949,-0.655762,0.611328
1482545601744757,-1.00416,0.0868855,-1.58244,-3.625,16.375,-2.625,-0.136719,-0.79248,0.518066
1482545601765825,-1.01168,0.0894385,-1.58159,-14.625,2.3125,9.125,-0.0791016,-1.00439,0.509766
1482545601789000,-1.00757,0.0914021,-1.57853,20.875,-5.875,9.375,-0.112793,-1.04541,0.496582
1482545601805665,-0.991722,0.0903643,-1.57321,48.125,-14.9375,5.5,-0.103516,-0.896484,0.511719
1482545601826651,-0.975352,0.0919731,-1.56579,44.6875,-16.9375,12.625,-0.135742,-0.786621,0.543457
1482545601848668,-0.962536,0.0949522,-1.5569,32,-20.625,14.625,-0.20166,-0.733887,0.550293
1482545601864708,-0.955539,0.0949494,-1.55064,15.75,-15.625,8.5,-0.119629,-0.741211,0.570801
1482545601886269,-0.953537,0.0951979,-1.54748,4.9375,-6.5,5.6875,-0.0913086,-0.8125,0.568359
1482545601908887,-0.953363,0.0970174,-1.5446,3.375,-6.1875,6.25,-0.155273,-0.874023,0.561035
1482545601924958,-0.94703,0.0969398,-1.53987,19.125,-11.75,7.1875,-0.108887,-0.838867,0.562012
1482545601948953,-0.938935,0.0960402,-1.53398,20.1875,-16.3125,6.125,-0.121094,-0.774414,0.59375
1482545601969026,-0.93493,0.0951054,-1.52804,7.25,-16.1875,6.4375,-0.118652,-0.780762,0.618652
1482545601985657,-0.93214,0.0940966,-1.52308,5.3125,-13.1875,5.875,-0.103516,-0.843262,0.650879
1482545602005777,-0.924345,0.0937534,-1.51893,19.1875,-10.0625,5.375,-0.110352,-0.848633,0.674316
1482545602028793,-0.913034,0.0938654,-1.51491,28.1875,-9,7.0625,-0.106445,-0.813477,0.685059
1482545602046903,-0.902196,0.094137,-1.5106,25.6875,-10.125,6.375,-0.126953,-0.789551,0.701172
1482545602065892,-0.891669,0.0947541,-1.50577,23.625,-9.9375,8.625,-0.117676,-0.803711,0.73877
1482545602089065,-0.878554,0.0954947,-1.5004,32.0625,-10.8125,10.125,-0.121582,-0.822266,0.757324
1482545602106650,-0.861675,0.0961018,-1.49474,42.8125,-12.125,10.625,-0.131836,-0.815918,0.774414
1482545602125789,-0.844185,0.0976492,-1.49018,44.375,-7.375,10.3125,-0.125977,-0.779785,0.776367
1482545602148803,-0.826381,0.101154,-1.48617,47.1875,-3.4375,12.8125,-0.154297,-0.790527,0.781738
1482545602166799,-0.807138,0.106421,-1.48053,50.8125,-5.75,17.25,-0.213867,-0.777344,0.797852
1482545602186389,-0.786096,0.112,-1.47444,56.125,-5.125,18.875,-0.206543,-0.749023,0.791016
1482545602208968,-0.761814,0.118252,-1.46782,64.25,-6.0625,20.0625,-0.242676,-0.704102,0.805664
1482545602227009,-0.735054,0.125657,-1.45866,69.4375,-10.625,25,-0.313965,-0.698242,0.855957
1482545602245995,-0.708247,0.134332,-1.44604,71.5625,-15.4375,34.1875,-0.350098,-0.736816,0.878418
1482545602269011,-0.679941,0.142063,-1.43009,79.875,-21.9375,41.1875,-0.347168,-0.789063,0.857422
1482545602287025,-0.648849,0.147683,-1.41205,91.1875,-26.6875,46.375,-0.287109,-0.780762,0.804688
1482545602306540,-0.614796,0.152406,-1.39158,98.8125,-28.5,52.8125,-0.23877,-0.720703,0.771973
1482545602328621,-0.582234,0.157145,-1.36853,93.125,-30.75,59.875,-0.23584,-0.671387,0.754883
1482545602346621,-0.552991,0.161466,-1.34316,81.9375,-32.5625,65.9375,-0.226074,-0.62793,0.759277
1482545602365634,-0.526481,0.165442,-1.31561,74.25,-34.5625,72.25,-0.21582,-0.620117,0.749023
1482545602388656,-0.501872,0.167951,-1.2867,69.4375,-37.125,75.5625,-0.197266,-0.616211,0.739258
1482545602406220,-0.47819,0.170772,-1.25762,67.3125,-34.1875,77.125,-0.182617,-0.583008,0.697754
1482545602426235,-0.456646,0.172133,-1.22892,61.125,-34.9375,76,-0.159668,-0.539551,0.665527
1482545602448287,-0.438269,0.172677,-1.20124,50.5625,-32.375,73.25,-0.130859,-0.498535,0.666016
1482545602466263,-0.421271,0.171958,-1.17306,43.375,-34.875,73.0625,-0.129883,-0.439941,0.679199
1482545602486296,-0.406603,0.168805,-1.14416,37.4375,-40.3125,73.25,-0.119629,-0.45166,0.709961
1482545602508800,-0.395077,0.163129,-1.11571,29,-43.125,70.5625,-0.0805664,-0.449219,0.713379
1482545602526812,-0.384668,0.157728,-1.08996,28.75,-37.5,65.5,-0.0556641,-0.470703,0.738281
1482545602545826,-0.374411,0.152986,-1.06642,27.25,-32.0625,60.125,-0.0512695,-0.436035,0.785645
1482545602568842,-0.364713,0.149399,-1.0454,23.9375,-25.5625,55.125,-0.0458984,-0.391602,0.80957
1482545602586856,-0.357467,0.145835,-1.02568,17.5625,-23.125,51.4375,-0.0351563,-0.384766,0.820313
1482545602606370,-0.352485,0.141909,-1.00788,11.5625,-21.1875,46.9375,-0.019043,-0.380859,0.838867
1482545602628886,-0.348846,0.136554,-0.991938,8.375,-22.3125,40.8125,-0.00878906,-0.377441,0.858398
1482545602646899,-0.346494,0.130643,-0.978117,4.3125,-20.75,34.3125,0.00195313,-0.374023,0.905273
1482545602667913,-0.345109,0.125563,-0.966083,1.75,-15.9375,31,0.0166016,-0.371582,0.928711
1482545602688478,-0.342893,0.122652,-0.956125,2.6875,-9.5,26.625,-0.00195313,-0.33252,0.945313
1482545602711494,-0.340157,0.121138,-0.947755,1.75,-4.5625,23.0625,-0.0126953,-0.298828,0.972168
1482545602727504,-0.340044,0.119097,-0.940974,-6.25,-5.875,18.125,-0.0341797,-0.28125,0.978027
1482545602748534,-0.343347,0.116174,-0.935024,-13.375,-6.8125,14.9375,-0.015625,-0.323242,0.981934
1482545602771564,-0.345113,0.113569,-0.931577,-6.9375,-3.25,9.125,-0.0136719,-0.348145,0.989258
1482545602787606,-0.343264,0.112144,-0.930485,4.1875,1.4375,3.9375,-0.0229492,-0.342285,1.00098
1482545602808672,-0.338903,0.111839,-0.931037,9.625,4.9375,-0.3125,-0.0371094,-0.306641,0.989746
1482545602830689,-0.334553,0.112429,-0.933316,9.6875,7.5,-4.5,-0.0610352,-0.287109,0.981445
1482545602847735,-0.331839,0.11308,-0.93623,6.8125,7.6875,-6.75,-0.0698242,-0.304199,0.973145
1482545602868761,-0.329989,0.112009,-0.941736,5.5,4.625,-14.75,-0.0742188,-0.308105,0.963379
1482545602886301,-0.32747,0.11003,-0.947908,7.625,4.8125,-17.5625,-0.0463867,-0.306152,0.959473
1482545602907301,-0.324477,0.109293,-0.955105,10.9375,6.5625,-19.375,-0.0800781,-0.327637,0.969238
1482545602936334,-0.323087,0.109749,-0.963355,4.3125,8.9375,-21.9375,-0.111328,-0.300781,1.00049
1482545602951344,-0.325369,0.110865,-0.972394,-5.3125,12.4375,-23,-0.0957031,-0.296875,0.955078
1482545602969357,-0.32998,0.111839,-0.980487,-9.875,11.625,-20.375,-0.090332,-0.346191,0.972168
1482545602988883,-0.333357,0.112008,-0.986739,-7.5625,6.25,-16.9375,-0.114258,-0.327637,0.943359
1482545603011399,-0.336593,0.111454,-0.991756,-7.4375,2.1875,-14,-0.125488,-0.333984,0.935547
1482545603028948,-0.340766,0.110069,-0.994757,-8.9375,-1.8125,-9.5625,-0.126953,-0.368652,0.95459
1482545603049004,-0.343758,0.107974,-0.996182,-3.6875,-5.3125,-5.6875,-0.120117,-0.401367,0.936523
1482545603066979,-0.342826,0.106399,-0.996699,5.5,-3.5625,-2.75,-0.109375,-0.376465,0.940918
1482545603089019,-0.33958,0.104938,-0.994397,9,-6.8125,4.5625,-0.108887,-0.334961,0.92627
1482545603109057,-0.336702,0.103713,-0.98979,5.875,-8.8125,10.625,-0.125,-0.321289,0.958008
1482545603131254,-0.336767,0.101955,-0.983164,-2.5,-14.25,15,-0.151855,-0.317871,0.931152
1482545603149266,-0.338053,0.0992154,-0.975958,-3.875,-15.5625,16.625,-0.117188,-0.359863,0.931152
1482545603168280,-0.337488,0.0965467,-0.968075,2.5625,-15.625,18.375,-0.112793,-0.379395,0.947266
1482545603191373,-0.332874,0.0955315,-0.959598,13.1875,-12.9375,21.5625,-0.128418,-0.366699,0.955566
1482545603209416,-0.325736,0.0952658,-0.950837,18.25,-12.25,22.125,-0.149902,-0.320801,0.955566
1482545603228962,-0.318754,0.0947273,-0.941928,15.75,-14.3125,21.75,-0.165527,-0.295898,0.968262
1482545603250990,-0.3147,0.0928258,-0.934016,8.625,-17.6875,18,-0.177734,-0.30127,0.971191
1482545603269014,-0.311728,0.0896072,-0.927693,6.5625,-20,12.5625,-0.177246,-0.310059,0.978027
1482545603289029,-0.307036,0.0842908,-0.922444,12.1875,-24.375,7.75,-0.169434,-0.323242,1.01465
1482545603311584,-0.300216,0.0768672,-0.918178,20,-28.6875,4.0625,-0.156738,-0.347168,1.04834
1482545603328751,-0.29118,0.0678361,-0.915565,23.3125,-32.875,-2.3125,-0.158691,-0.273438,1.01123
1482545603348823,-0.284584,0.0548668,-0.913914,15.0625,-38.8125,-7,-0.0874023,-0.240723,1.00293
1482545603370915,-0.283144,0.0393947,-0.91124,1.6875,-38.1875,-3.25,0.0566406,-0.262207,1.00146
1482545603388938,-0.28125,0.0246033,-0.90654,10.25,-35.875,3.75,0.104004,-0.341309,0.911621
1482545603408989,-0.271876,0.0105475,-0.900116,33.0625,-35.9375,8.8125,0.105957,-0.350098,0.914551
1482545603431577,-0.255445,-0.00282552,-0.893567,50.4375,-34.8125,10.0625,0.104004,-0.301758,0.944824
1482545603448591,-0.239072,-0.0142338,-0.888257,46.8125,-29.5625,8.375,0.102539,-0.230957,0.95166
1482545603468633,-0.227929,-0.0226992,-0.884074,30.4375,-20.8125,7.375,0.102539,-0.192871,0.935059
1482545603491622,-0.221794,-0.0281558,-0.880097,16.625,-13.8125,8.3125,0.0849609,-0.197754,0.95459
1482545603509205,-0.219288,-0.0326412,-0.876425,6.1875,-13.375,7.75,0.0551758,-0.19043,0.941406
1482545603529063,-0.218312,-0.0374707,-0.874125,4.875,-14.4375,3.4375,0.0429688,-0.235352,0.944336
1482545603551097,-0.215158,-0.0436383,-0.873567,10.875,-16.75,-2,0.0581055,-0.241211,0.97998
1482545603569082,-0.208354,-0.050426,-0.874356,15.1875,-11.3125,-4.625,0.159668,-0.167969,1.08594
1482545603589096,-0.202959,-0.0541732,-0.87485,8.875,1.4375,-1,0.227051,-0.121094,1.05225
1482545603611158,-0.202816,-0.0561618,-0.872796,-3.6875,-4.9375,5.5,0.0820313,-0.137207,0.979004
1482545603629176,-0.207852,-0.0569614,-0.87213,-11.6875,-7.375,0.375,-0.0102539,-0.243652,0.978027
1482545603650188,-0.216265,-0.0583763,-0.871346,-14.8125,-8.5625,-0.3125,-0.00634766,-0.340332,0.934082
1482545603671217,-0.215469,-0.0593166,-0.873292,7.875,-4,-6.75,0.0229492,-0.299805,0.965332
1482545603689227,-0.209011,-0.0591542,-0.872362,26.25,-2.375,1.375,0.0258789,-0.312012,0.961914
1482545603710251,-0.201816,-0.0611006,-0.869212,22.5625,-11.5,6.9375,-0.00146484,-0.223145,0.97168
1482545603731277,-0.196502,-0.0657493,-0.865347,19.4375,-18.6875,7.25,0.0146484,-0.239746,0.944824
1482545603749292,-0.18976,-0.0726795,-0.859984,24.375,-23.8125,10.75,0.046875,-0.237793,0.935547
1482545603770306,-0.176505,-0.0795083,-0.853751,43.125,-22.625,13.5,0.0771484,-0.222656,0.945801
1482545603791322,-0.160577,-0.0849774,-0.848182,54,-18.375,12.4375,0.0800781,-0.256348,0.956543
1482545603809350,-0.138561,-0.0907453,-0.841358,65.375,-17.625,16.6875,0.107422,-0.140625,0.942871
1482545603829910,-0.116834,-0.0970954,-0.833562,57.25,-19.9375,20.4375,0.106934,-0.012207,0.958008
1482545603850963,-0.102487,-0.106682,-0.827206,38.0625,-25.375,16.0625,0.156738,-0.0244141,0.910156
1482545603868959,-0.0918715,-0.11444,-0.820025,44.9375,-15.3125,17.6875,0.233398,-0.262695,0.938477
1482545603889975,-0.0613118,-0.119211,-0.812597,92.4375,-1.75,21.0625,0.303711,-0.09375,0.935059
1482545603911547,-0.0277656,-0.118193,-0.802674,87.125,17.125,30.0625,0.340332,0.148438,0.992188
1482545603929155,-0.0174646,-0.112211,-0.79412,15.8125,22.75,26.9375,0.208008,0.216797,1.0459
1482545603953171,-0.0230485,-0.106256,-0.787792,-22.3125,14.8125,19.3125,0.0864258,0.0966797,1.05371
1482545603971199,-0.0294678,-0.108607,-0.782736,-10.9375,-4.75,13.375,0.141602,-0.117188,0.987305
1482545603995202,-0.0136879,-0.120699,-0.781724,44.5,-28.625,2.3125,0.187012,0.00292969,0.805664
1482545604011745,0.0167042,-0.140385,-0.784285,78,-40.25,-6.0625,0.352539,0.133789,0.880371
1482545604031461,0.0433528,-0.152992,-0.785529,69.4375,-17.3125,-2,0.42041,0.134277,0.948242
1482545604049494,0.0552981,-0.156425,-0.787547,17.25,2.9375,-3.5,0.328613,0.27832,0.894043
1482545604071486,0.0434054,-0.155903,-0.787392,-42.5625,2.5,1.6875,0.157715,0.162598,0.899902
1482545604091516,0.0214925,-0.156672,-0.789425,-57,-5.5,-6.625,0.0917969,-0.0786133,0.868652
1482545604109031,0.0143262,-0.158783,-0.791581,-14.625,-1.9375,-7.25,0.206543,-0.0854492,0.915039
1482545604136080,0.0190801,-0.158786,-0.791322,13.4375,3.375,0.625,0.196777,0.0200195,0.938477
1482545604151091,0.0174892,-0.158159,-0.792883,-12.0625,-0.5,-3.1875,0.118652,0.116211,0.94043
1482545604169104,0.00765733,-0.159163,-0.795683,-33.25,-1.8125,-7.4375,0.17041,0.0610352,0.964844
1482545604191119,-0.00506321,-0.160346,-0.798146,-35.8125,-1.75,-7.5,0.185547,-0.0317383,0.977051
1482545604211153,-0.0120984,-0.156334,-0.803077,-22.3125,12.5,-13.8125,0.172852,-0.0136719,1.03857
1482545604228704,-0.0205102,-0.150412,-0.808035,-31.0625,14.6875,-13,0.116699,0.0483398,0.991211
1482545604251694,-0.0347291,-0.145874,-0.813802,-42.4375,9.375,-16,0.0864258,-0.0415039,0.980469
1482545604270721,-0.0467608,-0.144889,-0.820081,-37.8125,-1.6875,-17.9375,0.0712891,-0.0410156,1.00049
1482545604288728,-0.0545133,-0.146771,-0.826294,-21.1875,-5.375,-18.4375,0.151855,-0.112305,1.09912
1482545604311765,-0.0533394,-0.145449,-0.833054,1.75,2.5,-19.375,0.119141,-0.0737305,1.07227
1482545604330952,-0.0457296,-0.142304,-0.842226,6.8125,10.875,-23.8125,0.16748,0.11084,1.10645
1482545604353970,-0.0530262,-0.139067,-0.850086,-34.3125,12.5625,-20.25,0.17627,0.0898438,1.02979
1482545604371989,-0.0748367,-0.13817,-0.854953,-66.5625,3.625,-13.5,0.144043,-0.0429688,0.995605
1482545604391041,-0.0916225,-0.138358,-0.857054,-39.875,2.3125,-7.1875,0.175293,-0.226074,1.01416
1482545604414099,-0.0953202,-0.135598,-0.8568,-1.5625,11.875,0.625,0.198242,-0.228027,1.04688
1482545604431577,-0.0845293,-0.131012,-0.858164,32.8125,14.4375,-3.0625,0.152344,-0.119629,1.00488
1482545604451581,-0.0705803,-0.127302,-0.858319,35.625,12.625,1.1875,0.153809,-0.00878906,1.00635
1482545604473720,-0.0649567,-0.122907,-0.857268,11,11.75,4.375,0.116699,0.0102539,0.999512
1482545604491716,-0.0685881,-0.119231,-0.855645,-9.375,8.6875,5.375,0.100586,-0.0727539,1.00586
1482545604511289,-0.0720135,-0.115912,-0.854854,-5.9375,7.0625,2.125,0.0791016,-0.124023,0.976563
1482545604533580,-0.0704632,-0.112715,-0.855892,7.5625,6.375,-2.6875,0.0688477,-0.118164,0.966797
1482545604551569,-0.0646157,-0.108614,-0.856817,18.1875,9.75,-2.4375,0.0786133,-0.0908203,0.987305
1482545604572584,-0.0567759,-0.103874,-0.857973,20.5625,10.75,-2.375,0.0585938,-0.0322266,0.994141
1482545604593610,-0.05058,-0.0987931,-0.858885,12.25,12.6875,-1.6875,0.0737305,0.019043,1.00293
1482545604611638,-0.0519332,-0.0934105,-0.859804,-6.4375,12.8125,-1.5,0.0527344,-0.015625,0.982422
1482545604632168,-0.0580891,-0.0890195,-0.86057,-14.6875,9,-2.1875,0.0317383,-0.100098,0.963867
1482545604653177,-0.0611484,-0.085787,-0.86186,-4.4375,7.125,-3.625,0.050293,-0.127441,0.950195
1482545604671178,-0.059416,-0.0821202,-0.863704,8.1875,7,-5,0.0273438,-0.109863,0.957031
1482545604692192,-0.0568046,-0.0771974,-0.864761,9.0625,9.3125,-2.9375,0.000976563,-0.0800781,0.984375
1482545604713735,-0.0553478,-0.0709378,-0.866217,5.8125,11,-3.625,-0.0297852,-0.0869141,0.998047
1482545604731750,-0.0558627,-0.0650703,-0.868158,-2.0625,11.1875,-4.875,-0.0185547,-0.0498047,0.987793
1482545604752831,-0.0585271,-0.0600978,-0.870895,-8.6875,9.125,-7.3125,-0.0214844,-0.050293,0.968262
1482545604773845,-0.062013,-0.0562954,-0.873043,-7.875,7.25,-6,-0.00292969,-0.0957031,0.989258
1482545604792856,-0.0643661,-0.0523595,-0.874986,-2.4375,8.375,-5.0625,0.00927734,-0.129883,0.985352
1482545604812875,-0.0644512,-0.0495304,-0.877198,1,4.4375,-6.5,-0.0112305,-0.0859375,0.934082
1482545604833908,-0.0650294,-0.048548,-0.87939,1.0625,1.1875,-6.1875,0.0180664,-0.101563,0.956543
1482545604851270,-0.0647969,-0.0475715,-0.881164,2.5625,0.8125,-5.1875,0.0126953,-0.0913086,0.946777
1482545604872277,-0.0622002,-0.0458816,-0.882979,8.25,2.125,-5.25,-0.000976563,-0.0791016,0.943848
1482545604893308,-0.0595866,-0.0428108,-0.884426,7.0625,5.0625,-3.5,-0.0166016,-0.0512695,0.944824
1482545604911302,-0.0622695,-0.0394057,-0.885676,-8.125,5.1875,-3.4375,-0.027832,-0.0546875,0.93457
1482545604934203,-0.0689652,-0.036117,-0.886133,-18.1875,5.8125,-1.0625,-0.0185547,-0.0834961,0.945313
1482545604953968,-0.0762131,-0.0342344,-0.88496,-15.5,-2.125,2.8125,-0.0756836,-0.143555,0.910645
1482545604971980,-0.0788479,-0.0340943,-0.884158,-0.875,-6.5,1.8125,-0.0600586,-0.17041,0.963379
1482545604993937,-0.0787339,-0.0334752,-0.883635,4.75,-5.25,0.9375,-0.0644531,-0.136719,0.990234
1482545605013951,-0.0783556,-0.0328459,-0.882723,1.75,-5.0625,2,-0.0620117,-0.0893555,1.00195
1482545605040509,-0.0817426,-0.0319544,-0.881389,-10.4375,-5.125,3.25,-0.0766602,-0.0717773,1.02197
1482545605054507,-0.0898017,-0.0317534,-0.879673,-21.5625,-7.9375,4.3125,-0.0786133,-0.110352,1.021
1482545605073529,-0.0984281,-0.0337853,-0.877227,-19.9375,-12.1875,5.875,-0.046875,-0.166016,1.01611
1482545605091531,-0.10287,-0.0363798,-0.874445,-9.3125,-10.4375,6.625,0.00390625,-0.15332,1.03711
1482545605113549,-0.103691,-0.037475,-0.87064,-0.4375,-5.875,10.4375,0.0141602,-0.131348,1.03955
1482545605134066,-0.103512,-0.0389579,-0.865286,-0.6875,-7.625,14.3125,0.0146484,-0.0830078,1.02393
1482545605151581,-0.104309,-0.0409904,-0.859559,-1.25,-7.8125,15.8125,0.0375977,-0.109375,1.02441
1482545605173596,-0.10333,-0.0445841,-0.853226,5.125,-12.75,16.875,0.0380859,-0.128418,1.00195
1482545605193613,-0.0967927,-0.0501405,-0.847761,21.125,-16.4375,14,0.065918,-0.123047,1.01318
1482545605211622,-0.083896,-0.0568201,-0.843741,36.375,-18.375,9.875,0.081543,-0.0673828,1.00195
1482545605234146,-0.0692372,-0.0660196,-0.840902,38.4375,-24.375,6.5625,0.100586,-0.0126953,1.0083
1482545605253236,-0.0566899,-0.0765927,-0.838063,32,-26.75,6.5,0.134766,0.0078125,1.02588
1482545605271266,-0.0467254,-0.0865063,-0.836144,23.375,-22.4375,4.875,0.177246,0.0317383,1.00684
1482545605294275,-0.0406721,-0.093829,-0.835925,10.0625,-13.3125,0.6875,0.202637,0.0629883,0.976074
1482545605313296,-0.0407899,-0.0983286,-0.836748,-6.6875,-5.875,-2,0.195801,0.0498047,0.959961
1482545605331810,-0.0460642,-0.102699,-0.837065,-17.25,-5.875,-1.125,0.189941,-0.0161133,0.970703
1482545605354482,-0.0487333,-0.10862,-0.835345,-6.875,-9.5625,4.25,0.216309,-0.0522461,0.961914
1482545605373504,-0.0437326,-0.114157,-0.832635,15.5625,-7.1875,7.625,0.241211,-0.0483398,0.963867
1482545605391504,-0.0335117,-0.117835,-0.830763,23.6875,-1.4375,5.875,0.245117,0.0551758,0.970703
1482545605413534,-0.0282702,-0.119773,-0.830246,6.9375,3.0625,2.375,0.244141,0.0922852,0.975098
1482545605434067,-0.0312161,-0.119841,-0.829543,-14.75,8.9375,3,0.24707,0.0610352,0.981445
1482545605451083,-0.0363261,-0.118335,-0.829032,-17.9375,11.8125,2.5625,0.227539,0.0117188,0.98291
1482545605474100,-0.0391261,-0.11567,-0.828463,-10.875,15.1875,2.5625,0.223145,0.00634766,1.00146
1482545605493118,-0.0385813,-0.112353,-0.82833,-3.6875,17.3125,1.625,0.226563,0.0361328,1.00293
1482545605511131,-0.0374742,-0.108789,-0.828216,-2.625,19.5,1.5,0.240723,0.0454102,1.00732
1482545605534167,-0.0370716,-0.105142,-0.828223,-5.4375,20.375,1.5,0.245117,0.0581055,0.961914
1482545605555179,-0.0376065,-0.101872,-0.827382,-6.375,21.125,3.75,0.269531,0.0366211,0.978027
1482545605571188,-0.0393067,-0.0975918,-0.825176,-5.1875,23,7.1875,0.251953,-0.0253906,0.975098
1482545605594244,-0.0411474,-0.0924067,-0.822148,-3.1875,22.75,9.125,0.207031,-0.059082,0.929688
1482545605615251,-0.0388027,-0.0871939,-0.820644,10,21.5,5,0.176758,-0.0776367,0.956055
1482545605631792,-0.0337962,-0.0824739,-0.820418,15.8125,18.5625,1.3125,0.154297,-0.0551758,0.980469
1482545605653942,-0.0299785,-0.0777514,-0.82053,12.6875,17.6875,0,0.138184,-0.0551758,0.998535
1482545605674946,-0.029098,-0.0702978,-0.820151,5.625,21.6875,1.4375,0.0756836,-0.0756836,1.00879
1482545605691970,-0.0283824,-0.0614836,-0.820853,4.625,20.5,-1.6875,-0.00244141,-0.0683594,1.05859
1482545605712970,-0.0270692,-0.0525329,-0.821291,6.6875,21.375,-0.75,-0.00927734,-0.0708008,1.04004
1482545605734547,-0.0258842,-0.0408428,-0.821853,7.5,27.25,-1.4375,-0.0439453,-0.0874023,1.04639
1482545605757121,-0.0248615,-0.0260429,-0.823425,6.125,33.1875,-3.8125,-0.103027,-0.0751953,1.06934
1482545605773129,-0.0239691,-0.00704579,-0.826527,1.25,45.0625,-7.625,-0.130859,-0.00878906,1.04297
1482545605794149,-0.0249929,0.0088425,-0.832059,-7.1875,32.0625,-15.1875,-0.20459,0.0395508,0.943848
1482545605817207,-0.0306667,0.0171985,-0.839375,-15.25,13.875,-20.375,-0.165527,-0.0429688,0.950684
1482545605833669,-0.0321888,0.0220303,-0.84857,0.5625,6.0625,-26.0625,-0.143066,-0.0957031,0.964844
1482545605856302,-0.0250204,0.0266579,-0.861832,23.4375,5.75,-37.8125,-0.148926,-0.0537109,0.95459
1482545605876330,-0.0146847,0.0318119,-0.87881,29.0625,8.25,-48.875,-0.138184,0.0117188,0.946777
1482545605893343,-0.00966283,0.0391199,-0.899225,13.75,13.375,-58.3125,-0.154785,0.03125,0.954102
1482545605915387,-0.0126576,0.0466046,-0.922133,-11.625,12.8125,-65.4375,-0.178223,0.0678711,0.939941
1482545605936907,-0.0227612,0.05144,-0.945881,-29.8125,8.5,-68.5,-0.145508,0.0366211,0.984375
1482545605952946,-0.0355263,0.0538849,-0.968555,-31.5625,7.1875,-64.3125,-0.0766602,-0.0576172,1.00977
1482545605975949,-0.0435309,0.0567109,-0.990116,-13.5625,7.75,-61.125,-0.0966797,-0.12793,0.990234
1482545605996960,-0.0438765,0.0605796,-1.01131,7.1875,6.125,-60.25,-0.166504,-0.111328,0.991699
1482545606012960,-0.0442118,0.0630973,-1.03172,4.6875,0.0625,-58.25,-0.202148,-0.0751953,1.00781
1482545606036500,-0.0490283,0.06122,-1.05028,-12.25,-12.3125,-54.125,-0.196289,-0.0292969,1.00781
1482545606057014,-0.0587699,0.0531338,-1.0641,-21,-27.25,-40.4375,-0.137207,-0.12207,0.976563
1482545606073527,-0.0655657,0.0424397,-1.07254,-6.8125,-33.875,-26,-0.110352,-0.229004,0.960449
1482545606096043,-0.061592,0.0311954,-1.07717,24.625,-37.625,-15.25,-0.119629,-0.237793,0.94043
1482545606117059,-0.0504646,0.0198741,-1.07914,39.75,-39.75,-7.625,-0.12793,-0.158691,0.915039
1482545606133647,-0.0387866,0.0082245,-1.07888,37.25,-41.5,-0.9375,-0.125,-0.0898438,0.930176
1482545606155633,-0.03227,-0.00405873,-1.07673,19.8125,-43.4375,4.6875,-0.10791,-0.0444336,0.889648
1482545606176691,-0.0304717,-0.0144436,-1.07375,8.25,-33.5625,7.3125,-0.0361328,-0.0703125,0.907715
1482545606193691,-0.0309233,-0.0222943,-1.0697,3.1875,-26.75,10.625,-0.0395508,-0.0898438,0.899902
1482545606216184,-0.0321852,-0.0312538,-1.06339,0.0625,-31.1875,17.1875,-0.0380859,-0.0756836,0.895508
1482545606236792,-0.0294733,-0.041075,-1.05601,11.6875,-32,20,-0.00830078,-0.0712891,0.946289
1482545606252850,-0.0252819,-0.0499791,-1.04713,15.6875,-29.125,24,0.00878906,-0.0629883,0.990234
1482545606275852,-0.0204234,-0.0575213,-1.03871,17.75,-23.375,23.8125,0.0395508,-0.0581055,1.01855
1482545606296864,-0.0161806,-0.0638713,-1.03013,12.5,-18.875,24.125,0.0639648,-0.00244141,1.05371
1482545606312876,-0.0138915,-0.0697325,-1.0196,9.375,-14.8125,29.5625,0.106445,-0.0244141,1.06836
1482545606335396,-0.0102868,-0.0742365,-1.00653,11.5,-12.6875,37.375,0.0913086,0.0117188,1.06396
1482545606356411,-0.00730225,-0.0803348,-0.993082,10.375,-17.0625,38.1875,0.09375,0.00585938,1.05469
1482545606373423,-0.00439976,-0.0866466,-0.980834,12.5,-17,34.875,0.111816,-0.0205078,1.03369
1482545606395439,0.00618848,-0.0942046,-0.970458,32.1875,-14.875,29.75,0.191406,0.0166016,1.021
1482545606416957,0.0240003,-0.0938167,-0.961122,52.625,13.875,26.5,0.282227,0.0390625,1.12695
1482545606433468,0.0390444,-0.0894086,-0.955841,39.375,21.625,14.5625,0.216797,0.11377,1.05273
1482545606456034,0.0386844,-0.0826988,-0.949636,-11.625,24,18.0625,0.141602,0.211426,1.01709
1482545606477035,0.0259271,-0.075892,-0.945339,-42.25,21,12,0.0957031,0.120117,1.02051
1482545606495141,0.0127468,-0.0775037,-0.941805,-36.9375,-4.4375,10.125,0.0776367,0.00927734,1.00195
1482545606516097,0.009188,-0.0880365,-0.938659,-1.3125,-28.5,8.75,0.102051,-0.105957,0.921875
1482545606537135,0.0274677,-0.102307,-0.935298,56.625,-34.9375,9.9375,0.183105,-0.0234375,0.975586
1482545606553237,0.0571481,-0.114343,-0.933961,77.625,-14.625,5.1875,0.396484,0.166992,1.01318
1482545606576267,0.0715525,-0.116291,-0.934057,21.75,8.4375,1.25,0.318359,0.351074,0.995117
1482545606597283,0.0557546,-0.115864,-0.93244,-57.6875,3.625,6,0.133789,0.235352,0.901367
1482545606613283,0.0289673,-0.117263,-0.932566,-71.9375,-2.25,-1,0.134277,-0.0424805,0.922852
1482545606636330,0.019609,-0.11975,-0.937826,-20.875,-4.875,-16,0.15332,-0.0927734,0.94873
1482545606656600,0.0242409,-0.120446,-0.946524,11.5625,3,-24.875,0.204102,0.00830078,1.03418
1482545606673584,0.0251523,-0.119887,-0.956334,-6.5625,-3.125,-27,0.0507813,0.105957,0.931152
1482545606695602,0.0139815,-0.123817,-0.964844,-41,-11.3125,-23.625,0.120117,0.0976563,0.908691
1482545606716614,-0.00492342,-0.12496,-0.971011,-48.9375,-1.75,-18.1875,0.149902,-0.111328,1.00391
1482545606732625,-0.0199581,-0.122995,-0.975484,-36.625,5.5625,-13.6875,0.121582,-0.136719,1.00342
1482545606756147,-0.0300999,-0.117615,-0.979121,-26.25,13.375,-10.6875,0.0878906,-0.0888672,1.03564
1482545606778162,-0.0337827,-0.111162,-0.982734,-10.125,17.5625,-9.8125,0.100098,-0.0595703,1.04053
1482545606792172,-0.0367365,-0.106118,-0.986274,-13.125,11.25,-9.5,0.0576172,0.0136719,1.02344
1482545606816191,-0.044424,-0.102936,-0.989697,-27.1875,6.6875,-8.9375,0.0615234,0.0146484,0.992188
1482545606838208,-0.0556719,-0.101702,-0.993015,-33.25,-0.6875,-9.625,0.0405273,-0.0556641,1.0127
1482545606852220,-0.0636606,-0.101994,-0.995122,-20,-2.125,-6.4375,0.074707,-0.114746,0.998535
1482545606875239,-0.0638412,-0.101791,-0.997055,2.9375,0.4375,-6.0625,0.0961914,-0.122559,1.01367
1482545606898306,-0.0564965,-0.0998243,-0.99872,19.25,5.625,-4.1875,0.100098,-0.0390625,1.00928
1482545606912375,-0.0517833,-0.0991478,-1.0004,6.4375,2.3125,-4.0625,0.0991211,0.0424805,0.992188
1482545606936034,-0.0570374,-0.101691,-1.00189,-21.6875,-5.75,-4.0625,0.118652,0.0336914,0.961914
1482545606958050,-0.068268,-0.103771,-1.00346,-31.125,-1.125,-4.875,0.163574,-0.0864258,0.962402
1482545606979131,-0.0748842,-0.103529,-1.00589,-16,7.0625,-6.875,0.185059,-0.126465,0.971191
1482545606996106,-0.0732849,-0.0999201,-1.00907,1.75,18.75,-7.3125,0.213867,-0.0473633,1.00488
1482545607018097,-0.0705718,-0.093423,-1.01409,-2.6875,27.1875,-11.625,0.20166,0.0605469,0.994629
1482545607032182,-0.0757817,-0.0854856,-1.0219,-29.6875,31.8125,-19,0.1875,0.11084,0.939453
1482545607055794,-0.0948515,-0.0780433,-1.03072,-63.125,33.5625,-21.875,0.213867,0.00390625,0.895508
1482545607085817,-0.117613,-0.0706171,-1.03983,-67.375,37.0625,-22.125,0.255371,-0.10498,0.92627
1482545607099832,-0.13708,-0.0608969,-1.04909,-55.5,46.8125,-20.875,0.286621,-0.158691,0.967773
1482545607115866,-0.150768,-0.0471864,-1.06141,-44.25,60.0625,-26.9375,0.276367,-0.101074,0.94873
1482545607138443,-0.164851,-0.0319906,-1.07622,-46.25,66.625,-31.9375,0.272461,-0.0908203,0.929199
1482545607159023,-0.182962,-0.0171044,-1.09059,-56.5,65.4375,-30.4375,0.253418,-0.121582,0.955078
1482545607176020,-0.204056,-0.00425772,-1.10184,-59,59.3125,-21.4375,0.24707,-0.229492,0.980957
1482545607198065,-0.220329,0.00817926,-1.11162,-39.6875,54.875,-16.625,0.19873,-0.315918,0.973633
1482545607219078,-0.227769,0.0198329,-1.12295,-15.25,50.0625,-22.125,0.133301,-0.305176,0.960938
1482545607236062,-0.233191,0.029127,-1.13607,-9.0625,39.5625,-28.8125,0.0463867,-0.302734,0.931641
1482545607258564,-0.239409,0.0334552,-1.14959,-11,23.3125,-34.375,-0.000976563,-0.305664,0.910645
1482545607279577,-0.247008,0.0318014,-1.16361,-12.5625,4.0625,-39.6875,-0.0424805,-0.342285,0.911621
1482545607295589,-0.25375,0.0244681,-1.17683,-8.3125,-15.5,-43.0625,-0.0893555,-0.383301,0.905762
1482545607318622,-0.258403,0.0126573,-1.19081,-1.0625,-30.75,-49.1875,-0.128906,-0.407227,0.904297
1482545607339660,-0.25969,-0.00471624,-1.20428,5,-48,-52.4375,-0.137207,-0.364746,0.882813
1482545607355678,-0.261536,-0.0252563,-1.21712,0.375,-56.4375,-53.4375,-0.108398,-0.333496,0.902832
1482545607377691,-0.267774,-0.0445066,-1.22657,-14.1875,-54.875,-42.9375,-0.0883789,-0.324707,0.922852
1482545607399694,-0.276044,-0.0599329,-1.23196,-14.8125,-51.625,-31.25,-0.136719,-0.395996,0.894531
1482545607415706,-0.285443,-0.0716238,-1.23503,-17.125,-45.5,-22.625,-0.166504,-0.412598,0.891113
1482545607438225,-0.292889,-0.0795232,-1.23685,-16,-37.3125,-17.0625,-0.174316,-0.370605,0.932129
1482545607459429,-0.300678,-0.0835793,-1.23687,-16.5625,-28.5,-9.25,-0.175293,-0.38623,0.963379
1482545607475441,-0.307274,-0.0846147,-1.2349,-14.25,-24.125,-2.1875,-0.202637,-0.378418,0.998535
1482545607498469,-0.309115,-0.0835003,-1.23243,-4.5,-18.75,1.4375,-0.201172,-0.334961,1.04639
1482545607519472,-0.306518,-0.0797915,-1.22968,3.9375,-12.375,4.6875,-0.214355,-0.26709,1.03711
1482545607536039,-0.304911,-0.0737627,-1.22668,-2.375,-6.75,7.25,-0.225586,-0.220703,1.05762
1482545607558608,-0.306955,-0.0651465,-1.22598,-12.0625,5.3125,4.0625,-0.188477,-0.251465,1.08984
1482545607579629,-0.31247,-0.0549661,-1.22827,-17.625,16.75,-1.0625,-0.132813,-0.308105,1.02783
1482545607595639,-0.316163,-0.0459124,-1.23229,-11.625,17.4375,-6.5625,-0.10791,-0.340332,1.05615
1482545607619642,-0.316882,-0.0430447,-1.2346,-11.0625,2.4375,-5.625,-0.0673828,-0.21875,1.06396
1482545607639675,-0.316346,-0.0424732,-1.23432,-3.5,-0.625,0.8125,0.0224609,-0.26709,1.0415
1482545607654793,-0.316738,-0.0386633,-1.23247,-1.0625,4.4375,6.625,-0.0268555,-0.322266,0.989258
1482545607677797,-0.315828,-0.0346845,-1.23161,1.375,6.6875,5.0625,-0.0161133,-0.303223,0.989258
1482545607698839,-0.316169,-0.0313019,-1.23244,-3.5625,10.9375,0.875,0.0454102,-0.276855,0.957031
1482545607715838,-0.315589,-0.0282093,-1.2336,-2.9375,13,0.875,0.0830078,-0.23291,0.925781
1482545607738368,-0.32153,-0.0260623,-1.23528,-19.1875,10.5625,-1.6875,0.0703125,-0.268555,0.884277
1482545607760235,-0.330719,-0.0242092,-1.23777,-23.0625,13.5,-2.5,0.120605,-0.352539,0.888672
1482545607775248,-0.338449,-0.0197261,-1.243,-17.625,23.5,-7.9375,0.114258,-0.382324,0.879883
1482545607798265,-0.344587,-0.0125018,-1.25117,-16.9375,34,-12.75,0.109863,-0.327637,0.867188
1482545607820280,-0.355516,-0.00449736,-1.26035,-33.75,37.3125,-14.6875,0.10791,-0.282715,0.848145
1482545607835291,-0.377324,0.00232432,-1.26856,-60.375,33.6875,-12.125,0.103027,-0.349609,0.799805
1482545607858329,-0.408325,0.00725724,-1.27667,-78.875,28.75,-13.125,0.100586,-0.467285,0.727539
1482545607880360,-0.438315,0.0123037,-1.28567,-73.75,30.25,-14.75,0.0893555,-0.530273,0.730469
1482545607895364,-0.462061,0.0174706,-1.29427,-56.5625,27.125,-14.125,0.0371094,-0.557129,0.758301
1482545607918375,-0.481638,0.0201245,-1.30056,-45.6875,15.0625,-12.1875,-0.012207,-0.554688,0.754883
1482545607940950,-0.498349,0.0204276,-1.30556,-41.5625,7.1875,-12.5625,-0.0253906,-0.499023,0.733887
1482545607954991,-0.522128,0.0197264,-1.30956,-60.5625,5.4375,-9.9375,0.0112305,-0.526367,0.711914
1482545607978005,-0.550486,0.0206009,-1.31577,-74.9375,13.875,-12.1875,0.0263672,-0.563965,0.758301
1482545608001040,-0.574642,0.0240138,-1.32132,-64.4375,16.75,-8.3125,-0.0224609,-0.589844,0.788574
1482545608022055,-0.597365,0.0284925,-1.32608,-62.5,15.6875,-5.8125,-0.0712891,-0.587402,0.804199
1482545608038619,-0.623627,0.0342228,-1.33369,-74.125,21.5,-11.4375,-0.11084,-0.568359,0.778809
1482545608061263,-0.65667,0.0403862,-1.34276,-88.8125,25.9375,-12.875,-0.107422,-0.662109,0.748047
1482545608082269,-0.687113,0.047602,-1.35368,-85.8125,32.3125,-14.5,-0.109863,-0.662598,0.799805
1482545608098292,-0.711629,0.0552246,-1.36288,-72.75,29.3125,-9.75,-0.140625,-0.652344,0.844727
1482545608120354,-0.732637,0.0633967,-1.36932,-65.875,23.1875,-4.9375,-0.20166,-0.662598,0.878906
1482545608141933,-0.751853,0.0703227,-1.37586,-60.75,21.0625,-6.5,-0.200684,-0.681152,0.867676
1482545608158556,-0.771301,0.0765813,-1.38405,-58.8125,23.1875,-10.3125,-0.19873,-0.690918,0.815918
1482545608180555,-0.792274,0.0825941,-1.39343,-60.875,27.125,-11.75,-0.174805,-0.724121,0.764648
1482545608201582,-0.812123,0.0901876,-1.40452,-59.5625,34.125,-10.375,-0.174805,-0.718262,0.790527
1482545608218581,-0.830245,0.0979956,-1.41439,-56.9375,31.125,-9.125,-0.216309,-0.699219,0.785645
1482545608241125,-0.848166,0.10257,-1.42161,-57.1875,21.875,-7.625,-0.173828,-0.740723,0.799805
1482545608262137,-0.867214,0.106378,-1.42816,-57.8125,19.9375,-6.1875,-0.151367,-0.773926,0.754395
1482545608278649,-0.880815,0.110163,-1.43621,-42.75,23.625,-8.5625,-0.15332,-0.810059,0.780273
1482545608301177,-0.892791,0.116024,-1.44405,-39.9375,24.875,-6.1875,-0.208984,-0.751953,0.756348
1482545608322179,-0.907386,0.121189,-1.44837,-46.5625,15.625,-1.75,-0.21582,-0.753906,0.701172
1482545608337769,-0.920171,0.124253,-1.45157,-43.8125,12.1875,-0.5625,-0.161621,-0.799316,0.755859
1482545608360784,-0.930189,0.127156,-1.45506,-34.6875,13.375,-0.3125,-0.155762,-0.855469,0.765625
1482545608381797,-0.932826,0.129777,-1.45708,-14.9375,8.75,0.75,-0.169434,-0.851563,0.773926
1482545608397826,-0.933107,0.131263,-1.45748,-8.125,4.4375,2.3125,-0.147949,-0.848145,0.761719
1482545608420839,-0.931288,0.132985,-1.4568,-5.3125,2.1875,3.75,-0.143555,-0.738281,0.731445
1482545608441368,-0.936513,0.133807,-1.45436,-21.375,-3.6875,5.1875,-0.13916,-0.749512,0.643066
1482545608458380,-0.947145,0.133,-1.45143,-32.875,-7.75,3.5625,-0.13623,-0.861816,0.645996
1482545608480382,-0.94991,0.129894,-1.45003,-8.5,-6,-1.8125,-0.0922852,-0.912109,0.652832
1482545608501397,-0.943579,0.128208,-1.45179,16.75,2.8125,-4.6875,-0.0966797,-0.836426,0.641602
1482545608518410,-0.939087,0.129306,-1.45477,9.875,9.125,-2.4375,-0.118164,-0.745605,0.618164
1482545608540444,-0.942239,0.131662,-1.45785,-11.0625,13,1.875,-0.0986328,-0.773926,0.612305
1482545608561470,-0.947775,0.135025,-1.45894,-13.75,7.625,5.6875,-0.142578,-0.84082,0.578613
1482545608578471,-0.951998,0.138286,-1.45899,-9.6875,5.5625,7.875,-0.146973,-0.87207,0.578125
1482545608600623,-0.953036,0.141749,-1.45948,-1.125,6.875,7.875,-0.13916,-0.860352,0.585449
1482545608622194,-0.95344,0.145388,-1.46119,-0.5625,9.3125,5,-0.165039,-0.846191,0.597168
1482545608637844,-0.951718,0.148622,-1.46358,5.3125,10.5,2.8125,-0.166992,-0.839844,0.608887
1482545608660921,-0.949954,0.151624,-1.46632,5.4375,11.0625,1.8125,-0.164551,-0.799805,0.588379
1482545608681914,-0.948933,0.154073,-1.46768,2.9375,6.9375,3.3125,-0.15332,-0.79834,0.582031
1482545608697910,-0.948386,0.155781,-1.46533,2,-2.875,7.1875,-0.168457,-0.821777,0.557617
1482545608720951,-0.948596,0.155957,-1.46198,3.1875,-7.375,7.4375,-0.143555,-0.88916,0.54541
1482545608742962,-0.944988,0.153996,-1.4574,10.875,-13.625,4.25,-0.145996,-0.855469,0.569824
1482545608757985,-0.939053,0.151078,-1.45201,15.9375,-17.75,1.875,-0.15332,-0.781738,0.55127
1482545608781001,-0.935187,0.148018,-1.44695,9.1875,-16.375,2.375,-0.125,-0.756348,0.55127
1482545608803004,-0.935823,0.145308,-1.44207,-3.25,-14.75,3,-0.117676,-0.769531,0.555664
1482545608817027,-0.941134,0.143599,-1.4388,-11.25,-9.6875,4.125,-0.113281,-0.866211,0.540039
1482545608840563,-0.943204,0.142337,-1.43596,-4.875,-8,3.1875,-0.124023,-0.852051,0.578613
1482545608863592,-0.943821,0.141522,-1.43334,-2.625,-6.0625,4.25,-0.111816,-0.809082,0.58252
1482545608877602,-0.94632,0.142042,-1.43067,-8.875,-5.3125,5,-0.143066,-0.771484,0.55957
1482545608900605,-0.953171,0.142847,-1.42817,-20.1875,-4.5625,6.3125,-0.140625,-0.819336,0.578125
1482545608923649,-0.958864,0.141958,-1.42735,-15.8125,-1.0625,3,-0.0913086,-0.871582,0.599121
1482545608937208,-0.959983,0.140522,-1.42748,-3.125,-0.5625,-1.6875,-0.114258,-0.876465,0.608398
1482545608961240,-0.955379,0.139381,-1.42911,9.625,3.625,-4.125,-0.117676,-0.820801,0.658203
1482545608983239,-0.954542,0.140365,-1.43136,0.25,6.625,-1.8125,-0.143555,-0.772461,0.595215
1482545608997249,-0.958975,0.141841,-1.43336,-12.875,6.6875,-0.8125,-0.164063,-0.837891,0.604492
1482545609020800,-0.961713,0.140979,-1.43534,-6.0625,4.8125,-3,-0.11084,-0.879395,0.597656
1482545609043354,-0.959385,0.141678,-1.43687,7.8125,2.9375,-3,-0.182617,-0.844727,0.581055
1482545609057351,-0.955662,0.141276,-1.43652,9,-1.4375,-0.8125,-0.147949,-0.789063,0.586914
1482545609080367,-0.956562,0.139496,-1.43545,-3.375,-4.4375,-0.875,-0.106934,-0.790039,0.558105
1482545609103382,-0.959678,0.13715,-1.43553,-9,-2.0625,-3.3125,-0.102539,-0.826172,0.580078
1482545609117395,-0.96165,0.135581,-1.43724,-3.25,1.375,-5.625,-0.130859,-0.868652,0.57959
1482545609140920,-0.960897,0.135167,-1.43787,4.1875,0.8125,-2,-0.13623,-0.847168,0.561035
1482545609162942,-0.960852,0.134296,-1.4386,0.6875,0.625,-2.5625,-0.125488,-0.817383,0.564453
1482545609185951,-0.963271,0.133685,-1.44021,-7.4375,3.875,-2.6875,-0.112793,-0.817383,0.584961
1482545609200963,-0.966744,0.132918,-1.44313,-9.125,6.4375,-5.125,-0.109375,-0.829102,0.578613
1482545609223483,-0.970528,0.132772,-1.44483,-7.8125,2.9375,-3.875,-0.148926,-0.847656,0.540039
1482545609244535,-0.971894,0.132775,-1.44501,-1.4375,-1.0625,-2.0625,-0.168457,-0.873535,0.552246
1482545609260546,-0.970771,0.130226,-1.44479,3.5,-4.3125,-4.9375,-0.123047,-0.82959,0.556641
1482545609283653,-0.970943,0.127928,-1.44426,-0.1875,-4.75,-3.8125,-0.116699,-0.845703,0.571289
1482545609304668,-0.969636,0.125542,-1.44476,2.625,-0.4375,-4.3125,-0.0864258,-0.837891,0.59375
1482545609321181,-0.969741,0.124297,-1.44679,-1.5625,3.75,-4.5,-0.102539,-0.828125,0.605957
1482545609342729,-0.97218,0.125431,-1.44781,-8.5,2.625,-2.1875,-0.171875,-0.775879,0.562012
1482545609363817,-0.977015,0.125682,-1.44561,-11.625,-6.0625,2.875,-0.154785,-0.874023,0.53418
1482545609380814,-0.980126,0.124656,-1.44266,-8.125,-8.875,2.5,-0.125977,-0.876465,0.558594
1482545609402855,-0.980044,0.123113,-1.441,-0.5,-5.9375,0.125,-0.11084,-0.859863,0.57373
1482545609424454,-0.981695,0.123085,-1.44041,-3,-1.125,1.5,-0.121094,-0.897461,0.56543
1482545609441006,-0.979452,0.125206,-1.43974,3.0625,1.0625,4.8125,-0.147461,-0.808105,0.603027
1482545609463009,-0.98075,0.128885,-1.43768,-7.375,-0.6875,8.875,-0.170898,-0.745605,0.545898
1482545609484038,-0.990023,0.13156,-1.43476,-25.9375,-4.4375,8.1875,-0.176758,-0.827637,0.508789
1482545609501051,-0.996429,0.131083,-1.43279,-16.875,-5.75,2.25,-0.136719,-0.910156,0.554199
1482545609523580,-0.997163,0.12926,-1.43211,-0.75,-3.875,-1.8125,-0.111816,-0.874512,0.538574
1482545609544186,-0.993911,0.128115,-1.43155,7.1875,-2.875,-2.4375,-0.134277,-0.840332,0.574707
1482545609560184,-0.988976,0.127052,-1.43072,6.875,-2.3125,-0.875,-0.113281,-0.76709,0.623535
1482545609583200,-0.991428,0.127411,-1.43003,-11.6875,-0.3125,2.1875,-0.112305,-0.75293,0.571777
1482545609604230,-0.999942,0.129561,-1.42871,-24.5625,-0.75,6.375,-0.145508,-0.85791,0.543457
1482545609620259,-1.00826,0.129822,-1.42876,-21.6875,1.125,1.8125,-0.121582,-0.914063,0.539551
1482545609642782,-1.00837,0.127728,-1.43139,1.3125,4.9375,-6.5625,-0.0893555,-0.898438,0.551758
1482545609665798,-1.00895,0.127503,-1.43388,-1.125,5.5625,-4.25,-0.131348,-0.862305,0.553711
1482545609679809,-1.01159,0.128757,-1.43275,-6.4375,-3.8125,0.4375,-0.203125,-0.853027,0.51123
1482545609702812,-1.01284,0.128766,-1.42861,-4.4375,-10.625,5.25,-0.145508,-0.856934,0.52002
1482545609725843,-1.01495,0.126883,-1.42589,-5.0625,-9.1875,0.625,-0.115723,-0.880859,0.516113
1482545609740851,-1.01365,0.125795,-1.42385,5.1875,-7.5,-0.6875,-0.15625,-0.911133,0.527344
1482545609763367,-1.00855,0.123519,-1.4227,14.5625,-5.125,-2.125,-0.0942383,-0.855957,0.535156
1482545609785883,-1.00726,0.122919,-1.42259,1,0.75,1.0625,-0.0805664,-0.831543,0.562988
1482545609800905,-1.00899,0.124621,-1.42306,-6.75,4.6875,4.8125,-0.10498,-0.876953,0.587891
1482545609823479,-1.00932,0.127061,-1.42376,-1.875,6.125,5.6875,-0.122559,-0.892578,0.581543
1482545609845457,-1.00568,0.129868,-1.42511,7.25,8,5.125,-0.123047,-0.823242,0.583984
1482545609860483,-1.00539,0.13213,-1.42522,-0.5625,4,4.9375,-0.133301,-0.824219,0.542969
1482545609883497,-1.00747,0.13401,-1.42403,-6.1875,0.75,7.25,-0.120117,-0.869629,0.547363
1482545609911615,-1.00744,0.134254,-1.42289,0.5625,-0.9375,5.375,-0.100586,-0.899902,0.554199
1482545609920583,-1.00353,0.13613,-1.42016,10.25,-3.0625,9.4375,-0.126465,-0.875488,0.556641
1482545609943608,-1.00019,0.138513,-1.41732,7.75,-4.125,8.5,-0.160156,-0.818848,0.538574
1482545609965615,-0.998904,0.138856,-1.41492,1.125,-4.25,5.625,-0.119629,-0.806641,0.540527
1482545609986646,-0.999263,0.138408,-1.41325,-1.875,-3.1875,3.4375,-0.0976563,-0.833984,0.538574
1482545610003654,-0.999494,0.138039,-1.41332,0.4375,0.8125,0.1875,-0.101074,-0.894531,0.538574
1482545610026181,-0.997664,0.139236,-1.41361,7.0625,1.9375,1.8125,-0.155762,-0.884766,0.538574
1482545610040216,-0.992513,0.139704,-1.41386,11.625,1,-0.3125,-0.155762,-0.828613,0.601074
1482545610063231,-0.990164,0.139491,-1.41448,3.125,-0.125,-4.0625,-0.171875,-0.753906,0.559082
1482545610086250,-0.993097,0.137373,-1.41406,-8.875,-3.6875,-4.125,-0.123047,-0.793457,0.517578
1482545610100276,-0.998975,0.135473,-1.41525,-14.5625,1.25,-3.0625,-0.0913086,-0.899414,0.552246
1482545610123315,-1.0004,0.135958,-1.41753,-0.9375,7,-0.6875,-0.120117,-0.908691,0.543945
1482545610145324,-0.999803,0.137435,-1.42005,4.125,8.25,-0.0625,-0.142578,-0.877441,0.536133
1482545610166338,-0.998748,0.139278,-1.42041,5.0625,2.4375,2.1875,-0.168945,-0.874512,0.53125
1482545610183349,-0.995629,0.139958,-1.4188,8.75,-3.75,3.3125,-0.165527,-0.875,0.564453
1482545610204876,-0.990828,0.139317,-1.4174,10.1875,-3.5,0.4375,-0.137695,-0.818359,0.584961
1482545610226334,-0.990871,0.13994,-1.41545,0.625,-5.625,2.1875,-0.178711,-0.823242,0.515137
1482545610243346,-0.992539,0.140202,-1.41204,-4.1875,-7.25,7.3125,-0.128906,-0.893555,0.541992
1482545610265349,-0.991947,0.138525,-1.40989,3.8125,-4.875,3.8125,-0.0722656,-0.900391,0.540039
1482545610286404,-0.987276,0.138614,-1.40859,14.4375,-2.375,4.125,-0.116211,-0.888672,0.559082
1482545610303433,-0.980779,0.141173,-1.40642,18.0625,-2.5625,7.6875,-0.177734,-0.854004,0.56543
1482545610325960,-0.975793,0.142933,-1.40367,11.5625,-3.5625,8.125,-0.144043,-0.793945,0.566895
1482545610347098,-0.975405,0.145701,-1.40101,0.0625,-2.5625,9.625,-0.163086,-0.805176,0.546387
1482545610363111,-0.976367,0.146695,-1.39911,-3.0625,-1.9375,6.75,-0.130371,-0.850098,0.561523
1482545610386130,-0.976977,0.14779,-1.39812,-0.25,0,5.25,-0.130859,-0.847168,0.539551
1482545610413914,-0.97782,0.150118,-1.3969,-0.875,-1,5.25,-0.192871,-0.858398,0.538574
1482545610422969,-0.977048,0.150606,-1.39523,1.8125,-3.0625,3.8125,-0.152832,-0.837891,0.558594
1482545610445988,-0.973393,0.150692,-1.39446,7.375,-1.5,1.4375,-0.149414,-0.806641,0.600586
1482545610467062,-0.973889,0.151854,-1.39347,-2.125,-1.75,2.6875,-0.180176,-0.802246,0.54541
1482545610483037,-0.976732,0.150431,-1.39005,-6.8125,-10.125,2.6875,-0.143555,-0.862305,0.536621
1482545610506242,-0.974277,0.147414,-1.38849,5.625,-6.8125,-2.5,-0.118164,-0.849121,0.588867
1482545610526540,-0.968962,0.14641,-1.38721,15.25,-3.3125,1.75,-0.116699,-0.87207,0.590332
1482545610543513,-0.962402,0.148828,-1.38568,16.3125,0.6875,8.6875,-0.143066,-0.814941,0.597168
1482545610565514,-0.964114,0.153745,-1.38218,-5.9375,-1.125,15.4375,-0.180664,-0.8125,0.558594
1482545610586728,-0.970119,0.157839,-1.37898,-17.1875,-2.5,13.1875,-0.205566,-0.910645,0.59375
1482545610602743,-0.970928,0.158812,-1.37893,-1.1875,2.375,3.875,-0.146973,-0.879395,0.577148
1482545610625483,-0.961009,0.1588,-1.37642,25,-7.125,1.8125,-0.189941,-0.78125,0.591309
1482545610648504,-0.957562,0.155434,-1.37265,8.625,-11.625,2.125,-0.0864258,-0.800293,0.558594
1482545610662508,-0.957869,0.154975,-1.36515,-0.6875,-20.1875,8.625,-0.207031,-0.882813,0.552246
1482545610685526,-0.953199,0.151553,-1.35667,12.1875,-27,4.3125,-0.1875,-0.837891,0.550293
1482545610708785,-0.946093,0.147103,-1.34896,14,-23.625,3.6875,-0.116699,-0.783203,0.618652
1482545610722796,-0.939969,0.146481,-1.34457,14.3125,-10.0625,6.875,-0.118652,-0.753906,0.575195
1482545610745911,-0.937639,0.146173,-1.34486,2.25,2.8125,1.0625,-0.0908203,-0.73291,0.617676
1482545610767901,-0.939601,0.145905,-1.3492,-7.6875,12.6875,-4.3125,-0.0751953,-0.76123,0.625488
1482545610782929,-0.940934,0.143459,-1.3589,-6.1875,25.6875,-13,0.0234375,-0.726074,0.645508
1482545610805954,-0.946099,0.143406,-1.37646,-10.875,48.375,-18.75,0.0507813,-0.778809,0.624023
1482545610828109,-0.954683,0.150939,-1.401,-13.5,73.625,-16,-0.0415039,-0.853027,0.584473
1482545610842109,-0.958431,0.162745,-1.4285,-0.25,85.125,-15.0625,-0.127441,-0.835449,0.618652
1482545610866138,-0.960063,0.169755,-1.45977,4.375,91.75,-24.9375,-0.012207,-0.830078,0.689453
1482545610888151,-0.96527,0.180814,-1.49806,3.375,107,-35.3125,-0.138184,-0.770508,0.599121
1482545610909339,-0.972184,0.188594,-1.53078,-0.5625,85.625,-37.375,-0.263184,-0.869629,0.549805
1482545610925354,-0.977206,0.192926,-1.55902,8.4375,71.125,-34.375,-0.237305,-1.00732,0.551758
1482545610948329,-0.965804,0.190634,-1.58521,52.875,55.125,-47.9375,-0.23877,-0.954102,0.556152
1482545610969343,-0.941908,0.182842,-1.60753,80.875,35.3125,-58.375,-0.254883,-0.815918,0.584961
1482545610985357,-0.919131,0.169726,-1.62598,74.5,16.375,-65.5625,-0.242188,-0.782715,0.59668
1482545611009945,-0.906064,0.154402,-1.6407,43.4375,6.375,-59.4375,-0.135254,-0.736816,0.587402
1482545611028969,-0.900458,0.142175,-1.6534,25.8125,8.875,-46.1875,-0.0820313,-0.815918,0.566895
1482545611045972,-0.897747,0.133146,-1.66406,20.0625,7.875,-36.5625,-0.105957,-0.878418,0.551758
1482545611067988,-0.892031,0.126749,-1.66905,28,-3.25,-24.4375,-0.166504,-0.858887,0.516602
1482545611089000,-0.884867,0.122616,-1.66749,28.9375,-16.3125,-12,-0.231445,-0.845703,0.524414
1482545611106023,-0.878177,0.120692,-1.66001,25.9375,-28.375,1.375,-0.283203,-0.827637,0.51123
1482545611128013,-0.869376,0.119921,-1.64837,29.4375,-36.875,8.9375,-0.32373,-0.821289,0.538086
1482545611149044,-0.859349,0.118365,-1.63142,25.4375,-49.5,16.875,-0.325684,-0.737793,0.59375
1482545611166057,-0.852419,0.118543,-1.61534,14.6875,-42.5625,21.0625,-0.285156,-0.686035,0.596191
1482545611188056,-0.848854,0.119014,-1.59609,4.375,-48.8125,27.3125,-0.293457,-0.670898,0.578613
1482545611209646,-0.848546,0.116751,-1.57416,-3.6875,-56.1875,31,-0.216309,-0.731934,0.585938
1482545611225647,-0.84577,0.111338,-1.55207,1.875,-60,26.9375,-0.16748,-0.75293,0.651855
1482545611248663,-0.84111,0.102395,-1.5354,9.625,-51.875,13.625,-0.0883789,-0.796387,0.679688
1482545611269708,-0.832883,0.0953242,-1.52416,19.1875,-33.25,10.625,-0.0151367,-0.751953,0.707031
1482545611285700,-0.820732,0.0894795,-1.51642,29.3125,-23.1875,6.9375,-0.00244141,-0.698242,0.717773
1482545611307856,-0.815566,0.0856004,-1.51229,7.125,-11.25,4.8125,0.0126953,-0.664063,0.757813
1482545611328874,-0.821807,0.0813523,-1.51146,-23.75,-5.4375,-3.5,0.00244141,-0.675293,0.736816
1482545611352887,-0.833468,0.0785808,-1.51232,-35.375,2.375,-1.5625,0.0288086,-0.824219,0.786133
1482545611367957,-0.839705,0.0783461,-1.51463,-18.6875,8.1875,-0.25,-0.00439453,-0.835938,0.77832
1482545611392494,-0.843484,0.0813742,-1.5162,-11.9375,11.5,5.375,-0.0429688,-0.767578,0.708496
1482545611406000,-0.845667,0.0838518,-1.51386,-9.5625,-2.125,7.4375,-0.125,-0.729004,0.698242
1482545611428305,-0.849003,0.0812252,-1.50958,-11.375,-12.1875,4.5,-0.0439453,-0.766602,0.693359
1482545611449349,-0.849519,0.079,-1.50658,-4,-9.125,2.5625,-0.0488281,-0.768066,0.707031
1482545611465330,-0.852274,0.0784162,-1.50629,-9,-1,0.25,-0.0610352,-0.745117,0.669434
1482545611488348,-0.859432,0.0793062,-1.50784,-23.0625,5.8125,-0.6875,-0.0673828,-0.704102,0.665039
1482545611510376,-0.870773,0.0818594,-1.50948,-33.375,8.3125,2.5,-0.0791016,-0.725586,0.632324
1482545611525383,-0.88641,0.0846656,-1.51268,-41.3125,12,0.375,-0.0869141,-0.791016,0.594727
1482545611548399,-0.901795,0.087757,-1.51498,-38.5625,7.25,-0.4375,-0.155762,-0.853516,0.57959
1482545611570445,-0.912772,0.0904377,-1.51831,-30.375,11.5625,-0.5625,-0.106934,-0.803223,0.621582
1482545611593490,-0.923085,0.0934913,-1.52165,-29.125,12.3125,0.3125,-0.109863,-0.790527,0.604492
1482545611608103,-0.936596,0.0991875,-1.52334,-37.625,10.875,6.75,-0.161621,-0.82959,0.595215
1482545611631120,-0.95186,0.107291,-1.52321,-42.3125,10.3125,15,-0.183105,-0.861816,0.589844
1482545611645132,-0.963174,0.1147,-1.52247,-32.875,8.5,15.25,-0.174316,-0.848145,0.589844
1482545611668144,-0.973526,0.124448,-1.52065,-31.9375,9,22.4375,-0.191406,-0.831055,0.598145
1482545611691159,-0.984698,0.135799,-1.51858,-33.0625,10.9375,26.5,-0.208984,-0.881836,0.584473
1482545611705176,-0.991364,0.146109,-1.51595,-22.0625,8.875,26.5,-0.193359,-0.882813,0.609863
1482545611728278,-0.994516,0.156287,-1.51358,-12.3125,9.4375,26.3125,-0.189941,-0.850098,0.597168
1482545611750291,-0.99568,0.166784,-1.50946,-7.6875,4.9375,27.9375,-0.220215,-0.800781,0.554688
1482545611765301,-1.00042,0.176078,-1.50308,-18.3125,-1.9375,30.25,-0.210938,-0.820801,0.554199
1482545611788317,-1.00471,0.184432,-1.49469,-16,-6.875,33.625,-0.181152,-0.881836,0.549805
1482545611810837,-1.00513,0.191851,-1.4869,-4,-5.625,32.5625,-0.15625,-0.889648,0.543945
